AccX,AccY,AccZ
9.603728943,1.030307465,-1.955084381
9.477391663,0.9698332214,-1.945204926
9.500593414,1.031504974,-1.980531464
9.594897308,1.031355286,-1.895059204
9.428892517,1.031355286,-1.873504028
9.452992401,1.107995911,-2.037712555
9.633217621,1.328936462,-1.936373291
9.504335632,1.471589813,-1.914069672
9.571994934,1.674867096,-1.961970062
9.459878082,1.883682861,-1.990859985
9.540111237,2.190544739,-1.961670685
9.38174057,2.293081512,-1.779050446
9.37126236,2.476150818,-1.870210876
9.401200104,2.476450195,-1.891616364
9.35838913,2.583627319,-1.803000641
9.272617493,2.68646347,-1.847757568
9.403595123,2.47001358,-1.721270599
9.418713684,2.505340118,-1.856140137
9.446855164,2.562820587,-1.794318695
9.461225281,2.56252121,-1.818418579
9.493108978,2.579136658,-1.854044495
9.397607574,2.675835571,-1.718576202
9.430688782,2.737657013,-1.91077652
9.169481964,2.615361328,-1.820963287
9.530830536,2.696791992,-1.644330597
9.601483612,2.517315216,-1.699865112
9.44490921,2.638114014,-1.715133362
9.462273102,2.678829346,-1.551224213
9.327403564,2.638413391,-1.524429932
9.427844696,2.511776733,-1.663790131
9.440418549,2.521207123,-1.9681073
9.402098236,2.606080627,-1.802850952
9.267827454,2.442470856,-1.790127411
9.460776215,2.605032806,-1.540446625
9.316476288,2.486629028,-1.551972656
9.321715393,2.404150543,-1.611698456
9.527687073,2.454745331,-1.680555267
9.474846954,2.474504242,-1.676962738
9.637408905,2.385140076,-1.867366791
9.545649719,2.342029724,-1.894011383
9.438622284,2.40804245,-1.856439514
9.587562561,2.367776184,-1.659748535
9.31033905,2.492167511,-1.948797455
9.416917419,2.449655914,-1.640887756
9.411828003,2.500999146,-1.759890289
9.443262634,2.47121109,-1.602866821
9.571994934,2.525548096,-1.847757568
10.0036972,2.411485291,-1.963616638
9.312584381,2.443518677,-2.01376236
9.309440918,2.392624512,-1.941313019
9.461075592,2.318079529,-1.674867096
9.501192169,2.341880035,-1.504970398
9.312285004,2.223326569,-1.491498413
9.515861664,2.223027191,-1.628164215
9.34312088,2.257754974,-1.860032043
9.42155777,2.053878937,-2.013462982
9.442813568,2.00313446,-2.256407776
10.11476624,1.960772552,-1.88622757
9.866432648,1.975442047,-1.952240295
9.594148865,1.832788696,-1.869163055
9.73515564,1.968855743,-1.536554718
9.398206329,1.761836243,-1.542691956
9.225465546,1.809137878,-1.67561554
9.452543335,1.671274567,-1.719474335
9.621691589,1.383572845,-1.843117218
9.445358276,1.498533783,-1.973196716
9.869127045,1.669029236,-2.009271698
9.92585907,1.971101074,-2.047891388
9.424102478,2.085612946,-2.33319809
9.564211121,1.876946869,-2.280807037
9.627529449,1.826801147,-2.387984161
9.323062592,1.760039978,-1.939067688
9.679022369,1.669927368,-1.517693939
9.483379211,1.877246246,-1.184636536
9.260941772,1.731898499,-1.307830353
9.344767456,1.582658844,-1.524130554
8.976533203,1.719474335,-2.010918274
9.58651474,1.659598846,-2.575693817
10.26580215,1.70719986,-2.463427277
9.666598206,1.855990448,-2.83630188
9.802814941,1.69776947,-2.344724121
9.053922272,1.784738617,-2.245031433
9.124425659,1.591191101,-1.932481384
8.542286224,1.745220795,-1.498234406
9.250762939,1.592687988,-1.520538025
9.92346405,1.754651184,-1.228794708
9.839488678,1.673070831,-2.161355438
9.927805023,1.646575928,-2.643053741
9.580078125,1.810485077,-2.930156708
9.243577881,1.489103394,-2.285896454
9.011111298,1.438957672,-1.669178925
9.244625702,1.464554443,-1.23672821
9.350755005,1.481020203,-1.106049957
9.598789215,1.56439682,-1.575773163
9.449399872,1.643432465,-1.880838776
9.432634735,1.673070831,-2.431543579
9.947414246,1.332528992,-2.17168396
9.724677429,1.213227081,-2.013013916
9.637857971,0.9598040771,-1.937421112
9.661658478,0.7086264038,-1.554367676
9.287286987,0.9481283569,-1.635948029
9.091045074,1.022823029,-2.184856567
9.712103577,0.9237290955,-2.067350922
10.25502457,1.022373962,-2.280657349
10.32552795,0.8303233337,-1.96571228
10.29454239,0.7661068726,-1.695673828
9.59819046,1.085243225,-1.827399902
8.956923981,0.6810836792,-1.884880371
8.976233826,0.7021897888,-1.63924118
9.354048157,0.3366499329,-1.560654602
9.056916046,0.689765625,-1.768422546
9.458680573,0.5923182678,-2.176174622
9.856403503,0.2818638611,-1.735640717
9.779912567,0.3267704773,-2.701432343
9.934091949,0.2305206299,-2.366279297
9.4437117,-0.008083190918,-2.196831665
9.135053558,0.4622387695,-1.891017609
8.775501251,0.2894979858,-1.682351532
9.162446594,0.3854484558,-1.960922241
9.257349243,0.5513035583,-2.03950882
10.62280975,0.40251297,-2.44546463
9.624685364,0.5712121582,-2.665806427
9.571695557,0.639919281,-2.179767151
9.544452209,0.4272116089,-2.088007965
8.94644577,0.5421725464,-2.186952209
9.423354034,0.3152444458,-1.762285309
9.732910309,0.2074685669,-1.592388611
9.395062866,0.5757028198,-1.785786438
9.720186768,0.6267466736,-1.620829468
9.595496063,0.8979826355,-2.32960556
9.229507141,0.8918453979,-2.479593658
10.03438339,0.9375004578,-1.881587219
9.662257233,0.8542735291,-2.281256104
9.716594238,1.002615051,-1.967209167
9.166637878,0.8649014282,-2.186952209
9.154064026,0.895587616,-2.010319519
9.663454742,0.7963439941,-1.960323486
9.393865356,0.7797285461,-2.21374649
9.517208862,0.993633728,-1.72351593
9.120982819,0.9512718201,-1.964215393
9.574389954,1.062789917,-2.008223877
9.167086945,0.9583071899,-2.12138855
9.408385162,0.9776170349,-1.916764069
9.651329956,1.053359528,-2.057471466
9.827812958,0.8753796387,-2.18919754
9.363777924,1.096469879,-2.04175415
9.252409515,0.8813671875,-1.778451691
9.6321698,0.7951464844,-2.163002014
9.998158722,0.4980143738,-1.56679184
9.384434967,0.8072712708,-2.350412292
9.818382568,1.128353577,-2.252066803
9.80535965,0.4489164734,-2.799628143
8.492140503,1.332528992,-2.607577515
8.720116425,0.5544470215,-2.036065979
9.508676605,0.6234535217,-2.292333069
10.14111145,1.475631409,-1.999092865
9.43323349,0.4086502075,-3.394191742
9.962682495,0.6950047302,-2.978805542
10.03483246,0.07978408813,-3.389551392
8.866362305,0.8449928284,-3.456312561
8.175848236,0.8307723999,-3.170257416
8.66802475,0.4258644104,-2.603685608
9.320068817,1.396446075,-2.270628204
9.94576767,0.4334985352,-3.459306335
8.906778259,0.6010002136,-2.878813477
10.20218445,0.6701564026,-2.841990051
9.946965179,0.6514453125,-3.193010101
8.598419495,0.5062472534,-3.659589844
8.376580811,0.8845106506,-3.762425995
8.371790771,0.1727407837,-2.826422424
8.68209549,0.5656736755,-3.137924652
10.12075378,0.3128494263,-2.691103821
9.592651978,0.06526428223,-2.606230316
9.836195526,0.365539856,-2.579885101
9.416318665,0.3466790771,-3.111579437
8.892557831,0.427660675,-3.488495636
9.210496674,0.1246907043,-3.623065796
8.391250305,-0.04520599365,-3.409909058
8.760831757,0.1068777466,-3.041674805
9.204509125,0.3218307495,-2.487377472
9.624236298,0.4769082642,-2.6303302
9.375303955,0.3451821899,-2.860701141
9.606872406,0.2201921082,-3.07849823
9.310488739,0.1176553345,-3.473526764
9.091494141,0.4093986511,-4.244423676
9.144783325,0.2173480225,-4.697531433
8.892857208,0.3650907898,-4.10461441
9.081764374,-0.02754272461,-3.575913849
8.977281647,0.2903961182,-3.076701965
8.898246002,0.09520202637,-3.573668518
8.858578491,0.1326242065,-4.04024826
8.855435028,0.6448590088,-4.468956757
8.500223694,0.2630030823,-4.936135254
8.744665375,0.3209326172,-4.4697052
9.462422791,0.05388793945,-4.307742004
8.997489624,0.2688409424,-4.130211182
9.188193054,0.2868035889,-4.323159943
8.804241486,0.3818559265,-4.921765137
8.560697937,0.1916015625,-4.680915985
8.862171021,0.26210495,-4.547693024
9.02248764,0.6550378418,-4.882846069
8.038883057,0.16615448,-4.947212219
9.110354919,0.1444496155,-4.221371613
8.252937927,0.4050576782,-4.203109589
9.528136139,0.1977388,-4.296365662
9.290729828,0.3947291565,-4.226910095
8.72296051,0.07020401001,-4.92026825
8.726253662,0.1155596924,-4.944368134
9.197024689,0.1323248291,-4.672982483
8.677155762,0.4881349182,-4.63121933
8.463100891,0.3165916443,-4.976700897
8.365503845,0.1469943237,-5.278323669
8.331374817,0.04924758911,-5.173242188
8.549471283,-0.04670288086,-4.61131073
8.819060669,-0.07170089722,-4.511019287
8.881630554,0.04146377563,-3.94669281
9.322763214,0.1917512512,-3.736529846
9.048832855,0.002844085693,-3.539240112
9.204509125,0.06631210327,-3.629203033
9.348659363,-0.08038284302,-3.419788513
8.938961334,-0.03367996216,-3.978875885
9.136849823,-0.3779640198,-4.569996643
9.22142395,-0.4890330505,-4.223616943
9.000034332,-0.6174659729,-3.696712646
8.919202423,-0.7402107239,-3.916755066
8.584199066,-0.4695735168,-3.853436737
8.966204681,-0.7568261719,-3.652853851
9.019194489,-0.4385879517,-3.64477066
8.816665649,-0.4236190796,-3.752546539
9.188342743,-0.3674858093,-3.467239838
9.335935822,-0.2757266235,-3.344195709
9.428144073,-0.4020639038,-3.251837769
9.538314972,-0.3585044861,-3.214415588
9.531279602,-0.419128418,-2.908451843
9.344917145,-0.4460723877,-2.65607666
9.448202362,-0.5242098999,-2.642754364
9.217382355,-0.4558021545,-2.619103546
9.333989868,-0.3623963928,-2.751727753
9.467661896,-0.2559677124,-2.721041565
9.566007385,-0.2701881409,-3.032693481
9.3747052,-0.3972738647,-3.290756836
9.221124573,-0.1471440125,-3.741619263
8.920549622,0.3827540588,-3.860023041
9.383836212,0.4146377563,-2.573598175
9.672436066,0.6071374512,-2.421065369
9.466165009,0.4962181091,-2.334245911
9.225166168,0.5827381897,-2.495610352
9.348060608,0.5932164001,-1.635349274
9.725276184,0.2709365845,-0.9822573853
9.51391571,0.9617500305,-1.025218048
9.484876099,0.7228468323,-1.383423157
9.442364502,0.7493417358,-1.806892548
10.02555176,0.2906954956,-2.151475983
9.205706635,0.9961784363,-2.388582916
9.657317505,0.7014413452,-1.867067413
9.756561127,0.5885760498,-2.013912048
9.552984467,0.6033952332,-1.971849518
9.48233139,0.8066725159,-1.941762085
9.411079559,0.9386979675,-1.665736084
9.497749329,0.7815248108,-1.271156616
9.751771088,1.02267334,-1.492246857
9.685608673,1.280886383,-1.767374725
9.718839569,1.776056671,-2.117047577
9.619895325,1.830842743,-2.065704346
9.411678314,1.853595428,-2.29098587
9.521998901,2.091301117,-2.569406891
9.258397064,2.081122284,-2.751428375
9.097781067,1.952090607,-2.599045258
9.257947998,1.745669861,-3.267255707
9.190737762,1.548529816,-3.288511505
8.875493317,1.655557251,-3.369193726
9.296717377,1.388662262,-3.02236496
9.314530334,1.189276886,-3.065175934
8.90902359,1.391955414,-3.338507538
9.140592041,1.357077942,-3.518882446
9.227411499,1.348545685,-3.247945862
9.07398056,1.450483704,-3.414100342
9.027726746,1.50003067,-3.116818542
9.062005463,1.568288727,-2.929408264
9.58411972,1.378782806,-2.896327057
9.499246216,1.388811951,-3.130440216
9.432934113,1.34674942,-3.491339722
9.293274536,1.292412415,-3.821852417
9.512568512,1.23448288,-3.790866852
9.015152893,1.171014862,-3.817062378
8.765023041,1.267414398,-3.82155304
8.900042267,1.315314789,-3.411555634
8.855135651,1.358874207,-3.157683563
9.125323792,1.532962189,-3.056643677
9.110354919,1.360520782,-2.948269043
9.090895386,1.371897125,-3.166664886
8.925639038,1.563348999,-3.63309494
8.931027832,1.443448334,-3.629801788
9.24253006,1.503922577,-3.601211243
9.446406097,1.379830627,-3.752995605
9.368268585,1.599573669,-3.693868561
9.386081543,1.632804565,-3.812871094
8.709338837,1.776805115,-3.77350296
8.890911255,1.748513947,-3.734434204
8.771309967,1.479074249,-3.440445557
8.857830048,1.318907318,-3.235222321
8.819060669,1.527274017,-3.303031311
8.990603943,1.505269775,-3.833378448
9.01200943,1.614542542,-4.344116364
9.05407196,1.711091766,-4.389771423
9.079519043,1.681603088,-3.899540863
9.060059509,1.395248566,-3.117267609
9.571994934,1.363215179,-3.6097435
8.876391449,1.466949463,-3.829935608
8.801547089,1.433419189,-3.883973236
8.650960236,1.372795258,-3.801794128
9.02952301,1.561403046,-3.40960968
9.300010529,1.162931671,-3.041225739
9.439221039,1.203197937,-3.298390961
9.059161377,1.082099762,-3.588487701
9.050778809,1.295555878,-3.228636017
9.517807617,1.643432465,-3.043022003
9.458680573,1.776356049,-3.130739594
9.250014496,1.576521606,-2.926863556
9.021140442,1.616787872,-2.895578613
8.93716507,1.744322662,-2.988984375
9.324709167,1.823807373,-2.784210205
9.425449677,1.837429047,-2.669398956
9.114546204,1.759141846,-2.711611176
9.26707901,1.62636795,-2.775079193
9.245224457,1.764979706,-2.958747253
9.137598267,1.627266083,-2.9767099
9.553433533,1.551822968,-2.762355652
9.624835052,1.510059814,-2.858455811
9.187893677,1.685494995,-2.908751221
9.228309631,1.448986816,-2.858605499
9.115144958,1.443448334,-2.772384796
9.060059509,1.538500671,-2.49935257
9.471703491,1.496737518,-2.364033966
9.609117737,1.597028961,-2.441572723
9.825118561,1.443747711,-2.433938599
9.368717651,1.602417755,-2.306104431
9.595046997,1.47428421,-2.440375214
9.33024765,1.380429382,-2.380050659
9.413474579,1.497485962,-2.015708313
9.358089752,1.496737518,-2.309397583
9.694290619,1.587299194,-2.295326843
8.912316742,1.420096893,-2.06286026
9.570947113,1.575174408,-1.669777679
9.534722443,1.463955688,-1.582060089
9.249116364,1.550625458,-1.839524689
9.40988205,1.320853271,-2.424208832
9.416019287,1.4730867,-2.039808197
9.528734894,1.208287354,-1.561702423
9.589209137,1.289867706,-1.667981415
9.466165009,1.337768097,-2.152224426
9.455686798,1.259331207,-1.832639008
9.438771973,1.29061615,-1.707050171
9.430539093,1.217717743,-1.65914978
9.499545593,1.285526733,-1.826352081
9.511520691,1.138233032,-2.000290375
9.734556885,1.007854156,-1.812580719
9.644893341,0.8250842285,-1.429078217
10.04156845,0.9955796814,-1.184486847
9.611213379,1.257534943,-1.561702423
9.640702057,1.231339417,-1.727856903
9.716594238,1.145268402,-1.536704407
9.831255798,1.208586731,-1.313518524
9.645492096,0.9753717041,-1.022373962
9.608668671,0.9596543884,-1.028810577
9.595795441,0.7649093628,-1.334474945
9.63800766,0.9852511597,-1.485361176
9.858948212,1.100361786,-1.427731018
9.586664429,0.8307723999,-1.02267334
9.315877533,0.8111631775,-1.47084137
9.421258392,0.790506134,-1.780247955
9.504485321,0.9282197571,-1.528471527
9.154064026,0.7394622803,-1.458117828
9.597442017,0.8978329468,-1.693727875
9.572294312,0.8882528687,-1.654808807
9.744586029,0.6523434448,-1.413061523
9.193432159,0.5733078003,-1.561852112
9.49879715,0.6851252747,-1.250200195
9.691446533,0.8361611938,-1.175206146
9.744136963,0.6965016174,-1.678459625
9.666448517,0.3372486877,-1.728605347
9.736053772,0.8273295593,-1.275048523
9.865085449,0.4643344116,-1.48595993
9.777367859,0.7714956665,-1.6217276
9.416767731,0.6471043396,-1.516047363
9.787397003,0.4454736328,-1.830094299
9.36766983,0.7126679993,-1.871258698
9.543554077,0.7878117371,-2.339185638
9.720186768,0.5849835205,-2.887645111
9.569450226,-0.1095721436,-3.310665436
8.987310791,0.4824467468,-3.313958588
9.837393036,0.4095483398,-3.250191193
8.828491058,0.2139051819,-2.925516357
9.47769104,0.1451980591,-2.904709625
9.348359985,0.4447251892,-2.8970755
9.693691864,-0.04745132446,-3.013533325
9.194779358,0.4183799744,-3.038082275
9.493707733,0.3586541748,-2.739453278
9.337732086,0.2511776733,-2.610870667
9.39925415,-0.02978805542,-2.79528717
9.504036255,0.3239263916,-2.776426392
9.298962708,0.1794767761,-2.524649963
9.392368469,0.09250762939,-2.705174561
9.346264343,-0.1737886047,-2.794089661
9.208251343,0.3764671326,-2.810256042
9.317823486,0.1324745178,-2.68646347
9.350006561,-0.002694396973,-2.823278961
9.429790649,0.09490264893,-2.87836441
9.203161926,0.1263372803,-2.753524017
9.139993286,0.08816665649,-2.827021179
9.440119171,-0.04580474854,-2.803220673
9.653724976,0.04610412598,-2.98958313
9.088500366,0.3206332397,-2.794389038
9.876162415,-0.02844085693,-2.755919037
9.366023254,0.2139051819,-2.772235107
9.680519257,0.01916015625,-2.65607666
9.625433807,0.01122665405,-2.75202713
9.601333923,0.0043409729,-3.061583405
9.159153442,0.1469943237,-2.921025696
9.719438324,0.04520599365,-2.654280396
9.515861664,0.1091230774,-2.786754913
9.261690216,0.05179229736,-2.635868683
9.418863373,-0.04251159668,-2.679877167
9.357940063,0.2993774414,-2.612966309
9.547445984,-0.1193019104,-2.738405457
8.943152618,0.3101550293,-2.553689575
9.592053223,-0.29368927,-2.596350861
8.719667358,0.02754272461,-2.823129272
9.730215912,-0.4138893127,-2.975662079
8.823701019,0.06092330933,-2.656376038
9.676028595,-0.7527845764,-3.105591888
9.682165833,-0.3924838257,-2.999612274
9.940678253,-0.254021759,-2.857258301
8.513695679,-0.1384620667,-2.777324524
9.060059509,-0.6243516541,-3.103346558
9.765841827,-0.4026626587,-2.71220993
9.28818512,-0.8054750061,-2.739453278
8.584199066,-1.348994751,-2.675536194
8.834628296,-1.005608826,-2.84917511
9.324260101,-0.9000782776,-2.647394714
9.610015869,-1.029409332,-2.462229767
9.10331955,-1.062340851,-2.494412842
10.01462448,-1.240769806,-2.428250427
9.573940887,-1.240919495,-2.365830231
9.832902374,-1.349593506,-2.57883728
9.419013062,-1.405876465,-2.638413391
9.43907135,-1.481618958,-2.528841248
9.608818359,-1.593735809,-2.172133026
9.091643829,-1.157542877,-2.668051758
9.378597107,-1.640588379,-2.758314056
9.092991028,-1.391805725,-2.656376038
9.641300812,-1.872306519,-2.39980957
9.345066833,-1.820364532,-2.436333618
8.998088379,-1.843865662,-2.642155609
10.37118301,-2.413431244,-2.028431854
8.859626312,-1.638492737,-2.07453598
10.08273285,-2.048939209,-1.789678345
9.52454361,-1.887425079,-2.071691895
9.709708557,-2.351310425,-3.137325897
9.006470947,-1.92125473,-2.301913147
10.22463776,-2.473306732,-2.118245087
8.868308258,-2.101030884,-2.27347229
9.624086609,-2.378853149,-2.52270401
9.426497498,-2.355501709,-2.686014404
9.41212738,-2.154020691,-2.427202606
9.520502014,-2.284249878,-2.390079803
9.433383179,-2.408940582,-2.514171753
9.431736603,-2.271077271,-2.407892761
9.43907135,-2.254611511,-2.115999756
9.339827728,-2.129771118,-2.156565399
9.517208862,-2.256108398,-2.670895844
9.206155701,-2.294428711,-2.51686615
9.846374359,-2.2839505,-2.392923889
9.28698761,-2.369722137,-2.42914856
9.241482239,-2.356100464,-2.493365021
9.487271118,-2.33664093,-2.427651672
9.529932404,-2.555036774,-2.035616913
9.566157074,-2.470762024,-1.894161072
9.684411163,-2.263742523,-2.300565948
9.555229797,-2.30969696,-2.41627533
9.611812134,-2.195783844,-2.201322327
9.502389679,-2.546205139,-2.245929565
9.729018402,-2.440973969,-2.237546997
9.557175751,-2.573298798,-2.276765442
9.652527466,-2.789000244,-2.257455597
8.904233551,-2.184856567,-2.390229492
9.645342407,-2.095492401,-2.393223267
9.511221313,-1.800904999,-2.15297287
9.567504272,-2.111808472,-2.058070221
9.49879715,-2.0172052,-2.267784119
9.68246521,-2.061812439,-2.274819489
9.612410889,-1.984722748,-2.224524078
9.849368134,-2.165546722,-2.049837341
9.536668396,-2.090103607,-1.962718506
9.402696991,-2.08037384,-1.842668152
9.444759521,-2.11555069,-2.0570224
9.840237122,-2.27811264,-2.168241119
9.316326599,-2.074985046,-2.366728363
9.442963257,-2.231858826,-2.414479065
9.512269135,-1.898801422,-2.300565948
9.504485321,-2.078278198,-2.111808472
9.655221863,-2.222877502,-2.166295166
9.570048981,-1.943258972,-2.206411743
9.714947662,-1.898052979,-2.090852051
9.505682831,-1.872456207,-1.985171814
9.427844696,-1.8991008,-2.046843567
9.323511658,-1.92709259,-2.027533722
9.904603271,-1.943109283,-2.164947968
9.447004852,-1.707349548,-2.258353729
9.706864471,-1.677262115,-2.207758942
9.430389404,-1.345402222,-2.041005707
9.534872131,-0.6509962463,-2.060914307
9.532477112,-1.275198212,-2.248025208
9.384884033,-1.284179535,-2.242037659
9.364975433,-1.130149841,-2.269730072
9.584419098,-0.8152047729,-2.495460663
9.309291229,-0.2194436646,-2.216889954
9.534872131,1.519190826,-1.330583038
10.06417145,-0.172591095,-0.2457888794
10.12868729,0.5411247253,-0.1273851013
9.436975708,0.3885919189,-0.8910969543
9.857601013,0.2198927307,-1.415456543
9.36063446,-0.5641767883,-1.623972931
8.983718262,0.726738739,-2.206860809
9.604178009,0.06256988525,-1.50946106
9.784403229,0.227227478,-1.611548767
9.589209137,0.2445913696,-1.729503479
9.656269684,0.204175415,-1.603914642
9.676777039,0.1796264648,-1.638642426
9.60762085,0.3275189209,-1.523382111
9.353449402,0.296383667,-1.755249939
9.539811859,0.2085163879,-1.93293045
9.514364777,0.3568579102,-2.179318085
9.448052673,0.2881507874,-1.860630798
9.596394196,0.6457571411,-1.921105042
9.727970581,0.8437953186,-1.996099091
9.627679138,0.7048841858,-2.210902405
9.428742828,0.790506134,-2.280956726
9.210346985,0.54292099,-2.162702637
9.681417389,0.4188290405,-2.289938049
9.291029205,0.8273295593,-3.133883057
9.304052124,0.5016069031,-2.942580872
9.546098785,0.5114863586,-2.754272461
9.273964691,0.3454815674,-2.766546936
9.245673523,0.1239422607,-3.043022003
9.29282547,0.4173321533,-3.261268158
9.303603058,0.26210495,-3.367098083
9.185648346,0.189206543,-3.063828735
9.392667847,0.3531156921,-3.367247772
9.44610672,0.4617897034,-3.365750885
9.636959839,0.5281018066,-3.173400879
9.625284119,0.370329895,-3.363505554
9.032516785,0.3586541748,-4.001029816
8.972341919,0.5224136353,-4.492158508
8.75693985,0.6125262451,-4.245770874
9.037157135,0.3350033569,-3.782783661
8.688232727,0.426612854,-3.912863159
9.43787384,0.6816824341,-4.62538147
9.321266327,0.8605604553,-3.910019073
9.315578156,0.664019165,-3.976181488
8.943751373,0.3745211792,-4.474644928
8.557105408,0.8259823608,-5.217100983
8.738977203,0.6415658569,-4.697232056
8.799301758,0.3908372498,-4.362378387
9.179660797,0.590072937,-4.634811859
9.039402466,0.5414241028,-4.74468338
9.216334534,0.4439767456,-4.738396454
9.271270294,0.5589376831,-4.710105286
9.081764374,0.4776567078,-4.35968399
8.688083038,0.5370831299,-4.864134979
8.368796997,0.5342390442,-5.255870361
8.340805206,0.7194039917,-5.040318604
8.895252228,0.6891668701,-4.931644592
9.035959625,0.67045578,-5.119503937
8.889264679,0.8801696777,-5.38475235
8.884025574,0.7896080017,-5.052293701
8.843010864,0.5646258545,-4.786446533
8.274343414,0.7307803345,-4.345613251
8.87279892,0.9666897583,-4.315525818
9.358987885,0.9536668396,-4.214934998
9.293873291,1.024020538,-4.041595459
9.023236084,1.289268951,-4.763843536
9.097631378,1.237027588,-5.185067596
8.36026474,1.17939743,-4.837490387
9.320667572,0.7327262878,-4.329147491
8.841513977,1.072669373,-3.726051636
8.595874786,0.8738827515,-3.666774902
8.525371399,1.913171539,-5.082231445
9.724078674,1.123862915,-4.556225281
9.299112396,1.519340515,-4.222120056
8.988059235,1.192719727,-4.362378387
9.40988205,1.390308838,-4.272415466
9.004524994,1.399888916,-4.021836548
8.965605927,1.124162292,-3.529959412
8.74750946,0.9918374634,-2.643053741
9.689799957,1.218615875,-3.279829559
9.036408691,1.522783356,-2.66894989
9.19567749,1.283281403,-2.715054016
9.287137299,1.062340851,-2.332299957
9.558672638,1.362616425,-2.49935257
9.528435516,1.237027588,-2.465522919
9.311835938,1.154698792,-2.74379425
9.539811859,1.276096344,-2.735261993
9.593999176,1.21217926,-2.630629578
9.418713684,1.269060974,-2.45833786
9.510173492,1.335522766,-1.9972966
9.521998901,1.240769806,-1.779948578
9.388925629,1.46964386,-1.822160797
9.457033997,1.300645294,-1.969155121
9.437125397,1.283880157,-2.110161896
9.311985626,1.30812973,-2.247276764
9.787397003,1.304088135,-2.218985596
9.718540192,1.228195953,-2.382146301
9.305549011,1.095571747,-2.011966095
9.512418823,1.191222839,-2.088756409
9.056616669,1.174008636,-2.311792603
9.099577332,1.156195679,-2.271526337
9.491013336,1.172960815,-2.233355713
9.133556671,1.155896301,-1.951342163
9.368418274,1.260528717,-1.681154022
9.472601624,0.9015751648,-1.584455109
9.199868774,1.018931122,-1.87215683
9.247020721,1.159189453,-1.779349823
9.289532318,1.253792725,-2.607278137
10.63703018,0.9166937256,-2.088007965
9.537117462,1.002016296,-2.099683685
9.536818085,0.8873547363,-2.074086914
9.382039948,0.9946815491,-1.908680878
8.907975769,1.166823578,-1.187031555
10.2704425,1.048719177,-1.825154572
9.59355011,1.422342224,-1.682201843
9.599088593,0.970581665,-2.061812439
9.561217346,0.6367758179,-1.496887207
9.513316956,0.9123527527,-1.68729126
9.660760345,0.5037025452,-1.689835968
9.052724762,0.9806108093,-1.949096832
9.7502742,1.059347076,-1.907034302
9.818831635,0.8482859802,-1.786385193
9.673184509,1.190324707,-1.682501221
9.956096191,0.9621990967,-1.477427673
9.529483337,0.9345066833,-1.632654877
9.78664856,0.7298822021,-1.385668488
9.493707733,0.7216493225,-1.089284821
9.337582397,0.9205856323,-1.100361786
9.580078125,0.8665480042,-2.138602753
10.32133667,0.7912545776,-1.749412079
10.01447479,1.113983459,-1.651815033
9.612710266,1.094673615,-1.408570862
9.63561264,0.8220904541,-1.438807983
8.405171356,0.8405021667,-2.146536255
9.393565979,0.614172821,-1.056053925
10.01552261,0.8271798706,-1.329684906
9.500294037,0.9274713135,-1.67441803
9.368567963,0.9616003418,-1.819316711
9.845625916,0.8378077698,-1.894909515
9.373657379,0.6472540283,-1.802850952
9.796827393,0.8672964478,-1.682650909
9.703271942,0.8294252014,-1.532363434
9.574090576,0.8385562134,-1.45677063
10.02600082,0.9190887451,-1.527124329
9.438921661,0.7825726318,-1.855391693
9.339528351,0.9183403015,-1.363664246
9.662107544,0.6144721985,-1.369202728
9.82047821,0.770148468,-1.382674713
9.768835602,0.8170010376,-1.637145538
9.69533844,0.8428971863,-1.890718231
9.316476288,0.7837701416,-2.231858826
9.372609558,0.7711962891,-1.785037994
9.757608948,0.646355896,-1.603315887
9.828411713,0.8571176147,-1.720372467
9.613309021,0.7918533325,-1.656754761
9.392218781,0.7035369873,-1.788031769
9.310488739,0.8795709229,-1.92948761
9.447603607,0.8644523621,-1.458267517
9.481732635,0.9421408081,-1.389560394
10.99254089,0.713865509,-2.208357697
10.0715062,0.7264393616,-1.745370483
9.79712677,0.7825726318,-1.713337097
10.03677841,0.6496490479,-1.829944611
8.678353271,0.9086105347,-1.735341339
11.07412125,1.199904785,-1.019230499
9.493108978,0.9683363342,-1.372196503
9.054670715,1.223256226,-2.081421661
10.124496,0.2948867798,-1.505269775
9.886640625,1.001118164,-1.603166199
9.452992401,0.8496331787,-1.213825836
9.046886902,0.6080355835,-1.785936127
10.64975372,0.7839198303,-1.944306793
9.490713959,0.9033714294,-1.349294128
10.00130219,0.5041516113,-1.197360077
9.429491272,0.3583547974,-1.700613556
9.470206604,0.4766088867,-1.493594055
9.399703217,0.4049079895,-1.109343109
10.25247986,-0.05388793945,-1.881138153
9.416767731,0.2389031982,-1.800455933
9.51870575,0.2517764282,-0.9484277344
10.65873505,0.6864724731,-1.651515656
9.214538269,0.3719764709,-2.878963165
9.918524323,0.2402503967,-1.60421402
10.30337402,-0.190254364,-1.147513733
9.450148315,0.3026705933,-1.759890289
9.796827393,0.2793191528,-2.317630463
9.67078949,0.1396595764,-2.103126526
9.844129028,-0.07918533325,-1.531465302
8.821306,0.04251159668,-1.320104828
9.774523773,0.1529818726,-1.669627991
10.82863174,-0.02903961182,-1.564247131
9.206904144,0.6727011108,-3.05275177
10.67744614,0.3197351074,-2.373464355
9.721533966,0.08247848511,-2.463576965
9.181906128,0.2071691895,-2.240840149
8.542884979,-0.06062393188,-0.2713856506
9.577832794,0.03772155762,-1.75510025
9.743687897,0.1839674377,-1.746567993
9.214238892,0.315693512,-1.915267181
9.547445984,0.03592529297,-1.550775146
9.408085785,-0.3267704773,-1.944157104
9.234446869,0.2585124207,-2.080523529
9.541009369,0.2878514099,-1.555265808
9.447753296,0.1706451416,-1.543889465
9.072783051,0.01392105103,-1.98562088
9.058862,0.2471360779,-1.858235779
9.776320038,-0.2817141724,-1.682501221
9.301657104,0.04490661621,-1.407523041
9.244026947,-0.09610015869,-1.582060089
9.925559692,-0.2838098145,-1.346150665
8.791517944,-0.02350112915,-1.977687378
9.745184784,0.1094224548,-1.405577087
9.897567902,0.06182144165,-1.599274292
9.65671875,0.3198847961,-1.490600281
9.470356293,0.4120930481,-1.634002075
8.802445221,0.5237608337,-1.287023621
9.846973114,0.623303833,-2.496807861
10.72340057,-0.04281097412,-1.456620941
9.52678894,0.1692979431,-1.577719116
9.484576721,0.02320175171,-1.718576202
8.716972961,0.4782554626,-1.843865662
11.41900406,0.6876699829,-2.208357697
9.291029205,0.8605604553,-1.657353516
9.795779572,0.3980223083,-1.778900757
9.795480194,-0.002844085693,-1.911674652
9.01664978,0.4683760071,-2.344125366
9.589957581,0.1615141296,-1.688039703
10.28211823,-0.06197113037,-1.459165649
8.825048218,0.5481600952,-1.078058167
8.514444122,0.5340893555,-1.257534943
7.593110046,0.8791218567,-1.966460724
11.54579041,-0.4302053833,-1.259780273
11.05226669,0.4264631653,0.04849914551
9.011260986,0.2418969727,-1.043480072
8.625363464,-1.168470154,-1.411864014
7.597001953,0.2564167786,-2.671045532
9.74683136,0.5450166321,0.3625460815
9.232949982,0.9059161377,-0.7473957825
9.385333099,0.4189787292,-2.74738678
10.12539413,0.03622467041,-1.831740875
9.09852951,0.785716095,-2.138752441
9.51750824,0.1850152588,-2.009271698
8.812773743,-0.07065307617,-1.249302063
10.64705933,0.4707710266,-0.715512085
9.988578644,0.5643264771,-0.8843609619
8.920549622,0.4975653076,-1.713636475
10.423125,0.4370910645,-1.641037445
9.380393372,0.6096821594,-1.038540344
9.003028107,0.3215313721,-1.033301239
9.044641571,0.3119512939,-1.02267334
9.169182587,0.3025209045,-1.285227356
10.01507355,0.1059796143,-0.6197113037
9.349108429,0.3031196594,-1.465602264
8.784332886,0.1466949463,-1.596430206
8.230035553,0.4343966675,-0.9282197571
11.49130371,0.4540058899,-0.7429051208
10.89284821,0.1549278259,-0.2776725769
9.675280151,0.4436773682,-1.004411316
9.356742554,0.05343887329,-1.96930481
8.404123535,-0.1675016785,-1.993704071
10.48359924,0.710123291,-0.9027726746
10.80707657,0.8390052795,0.1118174744
9.800569611,0.5538482666,-1.164129181
9.296717377,0.15328125,-1.926643524
9.895023193,0.4396357727,-1.078207855
9.593400421,0.520916748,-0.4858895874
9.50583252,0.195643158,-1.114881592
9.331594849,0.3733236694,-1.219663696
9.379046173,0.5102888489,-1.065184937
9.620344391,0.4770579529,-1.281036072
9.445507965,0.4851411438,-1.375938721
9.538464661,0.1413061523,-0.660276947
9.682614899,0.3552113342,-0.3980223083
8.382268982,0.1493893433,-0.9598040771
9.182953949,0.1308279419,-1.432670746
9.966424713,0.5409750366,-1.495839386
9.311087494,0.6439608765,-0.4818479919
9.635762329,0.1922003174,-1.202599182
9.100774841,0.3162922668,-1.603465576
9.739496613,0.3908372498,-1.358275452
9.742041321,0.3929328918,-0.9747729492
9.443562012,0.2225871277,-1.229243774
9.616153107,0.346230011,-1.754950562
9.639803925,0.3321592712,-1.408570862
9.568402405,0.4578977966,-1.123862915
9.577234039,0.3083587646,-1.346000977
9.736203461,0.3176394653,-1.683399353
9.359736328,0.2887495422,-1.678309937
9.52095108,0.3251239014,-1.345252533
9.97735199,0.3261717224,-1.623523865
9.721833344,0.29368927,-1.4837146
9.837542725,0.2637515259,-1.244512024
9.621092834,0.5821394348,-1.597028961
9.262738037,0.4412823486,-2.006427612
9.769584045,0.4311035156,-1.670376434
9.598938904,0.2903961182,-1.389710083
10.01103195,0.2165995789,-1.786983948
9.476044464,0.0889151001,-1.963766327
9.64624054,0.3121009827,-2.061513062
9.655371552,0.3138972473,-1.985321503
9.061855774,0.2028282166,-2.279759216
10.34603531,0.2371069336,-2.173779602
9.750423889,0.2130070496,-2.345322876
9.695787506,0.08861572266,-1.839375
9.48008606,0.2838098145,-2.153421936
9.534423065,0.4969665527,-1.789828033
9.701475677,0.5399272156,-1.815424805
9.722132721,0.4026626587,-2.193089447
9.334588623,0.6809339905,-2.485431519
8.645272064,0.369282074,-2.864143982
10.61472656,-0.3773652649,-2.985691223
8.790619812,1.128652954,-3.36051178
8.912765808,0.2812651062,-3.363355865
9.245523834,-0.0470022583,-2.828967133
10.0303418,0.8686436462,-3.18732193
9.906249847,1.200353851,-1.889221344
8.991202698,0.3793112183,-2.877017212
8.938212891,0.3275189209,-3.368445282
10.03602997,0.4870870972,-3.496129761
8.730444946,0.0505947876,-3.567680969
8.388256531,-1.212029572,-3.352727966
9.584269409,0.4584965515,-3.82035553
9.562414856,-0.4005670166,-2.892584839
9.34431839,0.159717865,-3.010539551
8.984466705,-0.7954458618,-2.630629578
8.905730438,0.2092648315,-2.740950165
10.36025574,-0.9157955933,-3.149300995
8.904682617,0.1755848694,-2.939736786
9.562564545,-1.46844635,-2.560724945
8.889264679,-0.5405259705,-2.450703735
10.59242294,-0.8918453979,-2.369871826
9.12083313,-0.7538323975,-2.167792053
9.128616943,-0.9322613525,-2.776426392
9.528734894,-0.9144483948,-2.18455719
9.714947662,-0.7300318909,-2.460882568
9.561516724,-1.148262177,-2.556982727
9.481133881,-0.7444020081,-3.235970764
9.49759964,-0.9987231445,-2.880160675
9.472751312,-0.9876461792,-2.306104431
9.524393921,-1.068478088,-2.050735474
9.191935272,-0.8629554749,-2.575693817
9.506281586,-1.158141632,-2.519859924
9.694440308,-1.060245209,-2.519710236
9.377249908,-1.449136505,-2.358645172
9.527836761,-1.314117279,-2.464624786
9.40988205,-1.429377594,-2.476300507
9.246571655,-1.642384644,-2.558030548
9.358987885,-1.448687439,-2.533631287
9.287885742,-1.361867981,-2.471360779
9.235345001,-1.207987976,-2.499202881
9.835447083,-1.785786438,-2.324216766
9.71988739,-1.465751953,-2.676883392
9.482481079,-1.597478027,-2.943479004
9.072932739,-1.604962463,-2.735411682
9.005423126,-1.536405029,-1.975891113
10.17703674,-1.86512146,-1.860032043
9.404493256,-1.320254517,-2.572550354
9.371112671,-1.47428421,-2.89827301
8.89734787,-1.410516815,-2.856360168
10.07464966,-1.982477417,-2.687211914
9.021888885,-1.401236115,-2.709665222
9.291029205,-1.762734375,-2.865940247
9.219777374,-1.542242889,-2.925516357
9.239536285,-1.560654602,-2.264041901
9.644893341,-1.763782196,-2.328707428
9.249415741,-1.33043335,-3.057691498
9.214837646,-1.50122818,-3.217559052
9.146280212,-1.774410095,-3.110830994
9.220675507,-1.576970673,-2.907553711
9.40748703,-1.599723358,-2.18216217
9.613758087,-1.729802856,-2.435884552
9.225615234,-1.449286194,-2.450703735
9.53038147,-1.685944061,-2.811303864
8.885073395,-1.480421448,-2.918031921
9.255552979,-1.7305513,-2.6303302
9.65552124,-1.692081299,-2.403551788
9.67078949,-1.796713715,-2.329455872
9.92705658,-1.731898499,-2.748135223
9.586365051,-1.758543091,-2.96847702
8.928483124,-1.630259857,-2.750679932
9.593699799,-1.707499237,-2.279459839
9.137897644,-1.28941864,-1.926194458
9.81583786,-1.732347565,-2.319875793
9.194330292,-1.624871063,-2.678529968
9.241631927,-1.751058655,-3.132535858
9.421108704,-1.886526947,-3.224594421
9.631870422,-1.461560669,-2.86549118
9.508676605,-1.809437256,-2.251168671
9.60522583,-1.788181458,-2.515219574
9.094038849,-1.738035736,-2.627785492
9.023086395,-1.841919708,-2.794688416
9.185049591,-1.603315887,-2.992127838
9.520202637,-1.657203827,-2.683469696
9.579329681,-1.71303772,-2.27931015
9.700727234,-1.899549866,-2.199825439
9.385183411,-1.643582153,-2.538271637
9.213640137,-1.834135895,-2.767145691
9.38638092,-1.86631897,-2.783312073
9.737850037,-2.042053528,-2.844085693
9.046138458,-1.621577911,-2.891836395
9.192683716,-1.83353714,-2.83630188
9.11619278,-1.727258148,-2.592309265
9.319020996,-1.583706665,-2.391427002
9.465865631,-1.582509155,-2.492766266
9.42275528,-1.50122818,-2.448159027
9.469009094,-1.665137329,-2.566862183
9.40284668,-1.786235504,-2.665057983
9.218430176,-1.642534332,-2.740650787
9.454638977,-1.699715424,-2.785258026
9.211245117,-1.599423981,-2.992427216
9.487121429,-1.740730133,-3.027454376
9.474248199,-1.781146088,-2.771187286
9.542356567,-1.703008575,-2.298919373
9.411828003,-1.559906158,-2.172582092
9.263486481,-1.726210327,-2.365979919
9.128766632,-1.642234955,-2.761756897
9.121880951,-1.72471344,-2.787203979
9.312135315,-1.681603088,-2.620899811
9.383387146,-1.68025589,-2.832110596
9.438622284,-1.653461609,-3.10304718
9.305399323,-1.707349548,-3.125500488
9.4835289,-1.805245972,-2.787802734
9.516610107,-1.96226944,-2.66550705
10.20023849,-2.511477356,-2.940934296
9.763596497,-2.455793152,-2.747087402
9.386979675,-2.058818665,-2.256407776
9.242679749,-1.607357483,-2.279010773
9.025331726,-0.5998027039,-2.816842346
8.887618103,-0.565973053,-2.864593048
9.028624878,-0.7258406067,-2.863844604
9.135203247,-0.6409671021,-2.858455811
9.451046448,-0.7616162109,-2.767894135
9.538015594,-0.8015830994,-2.696791992
9.565857697,-0.8997789001,-2.811603241
9.530830536,-0.8187973022,-2.859803009
9.425898743,-0.8716374207,-2.759511566
9.349108429,-0.7906558228,-2.752326508
9.399553528,-0.8330177307,-2.813549194
9.344468079,-0.693507843,-2.869981842
9.32321228,-0.7189549255,-2.758164368
9.365274811,-0.7464976501,-2.71220993
9.273066559,-0.7417076111,-2.665207672
9.375154266,-0.8177494812,-2.796784058
9.357341309,-0.7071295166,-2.902464294
9.447902985,-0.6420149231,-2.799478455
9.343719635,-0.7373666382,-2.834056549
9.280550995,-0.6505471802,-2.876717834
9.32321228,-0.6246510315,-2.992427216
9.308991852,-0.6574328613,-2.932551727
9.315129089,-0.6288423157,-2.832409973
9.289083252,-0.536484375,-2.950514374
9.317224731,-0.5855822754,-2.902763672
9.35719162,-0.4822970581,-2.811453552
9.479786682,-0.5689668274,-2.783312073
9.417067108,-0.5749543762,-2.76370285
9.349258118,-0.6015989685,-2.81519577
9.277706909,-0.5995033264,-2.916385345
9.263935547,-0.5028044128,-2.971919861
9.41796524,-0.5185217285,-2.8877948
9.390871582,-0.5598358154,-2.868634644
9.29162796,-0.4909790039,-2.911295929
9.381141815,-0.4489164734,-2.839145966
9.342522125,-0.5113366699,-2.77777359
9.308393097,-0.3608995056,-2.832709351
9.333241425,-0.3737727356,-2.913391571
9.331894226,-0.4408332825,-2.886148224
9.33608551,-0.4586462402,-2.83390686
9.386231232,-0.4547543335,-2.836152191
9.413025513,-0.4644841003,-2.851121063
9.253307648,-0.1613644409,-2.856809235
9.387877808,0.2348616028,-2.891686707
9.385782166,0.2501298523,-2.843636627
9.382638702,-0.03278182983,-2.836601257
9.328601074,-0.220790863,-2.893183594
9.334738312,0.04445755005,-2.956501923
9.406439209,0.1787283325,-2.894979858
9.413923645,-0.03966751099,-2.809956665
9.375004578,-0.112565918,-2.80591507
9.299561462,-0.08637039185,-2.832559662
9.331594849,0.03697311401,-2.881208496
9.317224731,0.07978408813,-2.922073517
9.406888275,-0.05343887329,-2.835553436
9.373058624,-0.09056167603,-2.87372406
9.404044189,-0.1085243225,-2.8877948
9.342821503,-0.06316864014,-2.843636627
9.32905014,-0.03367996216,-2.847827911
9.327702942,-0.03053649902,-2.831811218
9.404642944,-0.0043409729,-2.843187561
9.401050415,-0.008232879639,-2.890040131
9.410031738,-0.01496887207,-2.903212738
9.360035706,-0.0383203125,-2.903362427
9.331744537,-0.01152603149,-2.786455536
9.430988159,-0.05104385376,-2.752476196
9.302255859,0.02305206299,-2.781366119
9.360335083,-0.01901046753,-2.867137756
9.392368469,0.08711883545,-2.87611908
9.390123138,-0.1721420288,-2.768792267
9.313632202,-0.05298980713,-2.812052307
9.434880066,0.05179229736,-2.862497406
9.353599091,-0.1330732727,-2.847229156
9.313332825,-0.0383203125,-2.724185028
9.455537109,0.01077758789,-2.805615692
9.350605316,0.03936813354,-2.846929779
9.442813568,-0.05298980713,-2.853366394
9.367220764,0.01601669312,-2.854563904
9.396260376,0.005538482666,-2.885549469
9.308991852,-0.01451980591,-2.879861298
9.317823486,-0.0347277832,-2.799628143
9.332343292,-0.008083190918,-2.837050323
9.321116638,0.02245330811,-2.82926651
9.309740295,0.002544708252,-2.861748962
9.356293488,-0.01032852173,-2.854414215
9.317075043,-0.05957611084,-2.816542969
9.429042206,-0.04760101318,-2.832260284
9.425599365,-0.01526824951,-2.873873749
9.35135376,0.02395019531,-2.802023163
9.391021271,-0.08936416626,-2.805016937
9.332792358,-0.07634124756,-2.829865265
9.390272827,-0.03577560425,-2.884950714
9.37590271,-0.008681945801,-2.793790283
9.359886017,0.001496887207,-2.793640594
9.436826019,-0.02020797729,-2.866838379
9.395511932,0.0001496887207,-2.877615967
9.385632477,0.02484832764,-2.851869507
9.398655396,-0.05358856201,-2.783761139
9.356293488,-0.04790039063,-2.825973358
9.350455627,-0.05373825073,-2.841690674
9.332492981,-0.03607498169,-2.825673981
9.298513641,0.02140548706,-2.790497131
9.342821503,0.01392105103,-2.848726044
9.370962982,0.00209564209,-2.870580597
9.378597107,0.0419128418,-2.828069
9.431886292,-0.04385879517,-2.807112579
9.375303955,-0.02200424194,-2.794688416
9.322014771,-0.05298980713,-2.814896393
9.336235199,-0.07514373779,-2.831960907
9.367819519,-0.08307723999,-2.843636627
9.366921387,0.03367996216,-2.819087677
9.39700882,-0.001796264648,-2.811603241
9.386231232,0.02005828857,-2.849624176
9.445807343,0.05044509888,-2.833607483
9.430688782,-0.04101470947,-2.845582581
9.40045166,-0.07274871826,-2.83510437
9.402696991,-0.03233276367,-2.879412231
9.313332825,-0.01886077881,-2.82103363
9.299561462,0.01646575928,-2.819387054
9.405690765,-0.001945953369,-2.818638611
9.382489014,0.001197509766,-2.816093903
9.406738586,0.005089416504,-2.786305847
9.405990143,-0.01571731567,-2.830913086
9.333241425,-0.093256073,-2.869532776
9.433083801,-0.01422042847,-2.804118805
9.327852631,-0.0809815979,-2.774929504
9.407037964,0.009729766846,-2.743644562
9.357341309,0.004640350342,-2.85261795
9.351802826,0.01796264648,-2.861299896
9.423952789,-0.01646575928,-2.890938263
9.426796875,0.007035369873,-2.840044098
9.436676331,-0.03682342529,-2.828218689
9.326655121,-0.08158035278,-2.800526276
9.304351501,0.1363664246,-2.834804993
9.460626526,0.3677851868,-2.814746704
9.240733795,0.1300794983,-2.615810394
9.662257233,0.7655081177,-2.260748749
9.603579254,0.1695973206,-2.311493225
9.936936035,-0.136665802,-2.551593933
8.639733582,1.419947205,-3.266956329
9.505982208,-0.2505789185,-2.772085419
10.03333557,2.099234619,-0.8479866028
9.379495239,0.5472619629,-1.690434723
10.09590546,0.5420228577,-1.214723969
9.537566528,0.6005511475,-1.869163055
9.557774506,0.6776408386,-2.255659332
9.454788666,0.466280365,-2.233804779
9.662257233,0.6301895142,-1.970801697
9.573342133,0.7322772217,-1.742526398
9.48816925,0.5586383057,-2.015259247
9.56900116,0.5861810303,-1.956730957
9.647737427,0.6845265198,-2.097588043
9.636959839,0.9557624817,-1.973047028
9.613159332,1.154698792,-1.92005722
9.549391937,1.519041138,-1.870061188
9.59355011,1.671873322,-1.874851227
9.560917969,1.655557251,-1.87799469
9.54669754,1.826950836,-2.140997772
9.651779022,1.746867371,-2.086361389
9.747879181,1.686842194,-1.909878387
9.655670929,1.832189941,-1.483864288
9.614805908,1.827100525,-1.506467285
9.35135376,1.87559967,-1.614841919
9.335786133,1.989662476,-1.836231537
9.285191345,2.113455048,-1.866169281
9.311087494,2.095791779,-1.93068512
9.560917969,2.099833374,-1.92245224
9.707612915,2.072889404,-2.064656525
9.638905792,1.992506561,-2.048190765
9.73276062,1.843266907,-1.953138428
9.751322021,1.988914032,-1.595831451
9.742640076,1.972148895,-1.472937012
9.595346375,1.94939621,-1.611698456
9.516161041,2.063908081,-2.083666992
9.430988159,2.225272522,-2.244582367
9.38638092,2.132016449,-2.251318359
9.291328583,2.244732056,-2.384990387
9.236392822,2.53318222,-2.42211319
9.228758698,2.329306183,-1.912572784
9.606123962,2.159858551,-1.472937012
9.80760498,1.967508545,-1.358125763
9.709858246,1.947300568,-1.426832886
9.859696655,1.835782471,-1.806892548
10.02285736,1.807491302,-2.089205475
9.48008606,1.699416046,-2.355501709
9.583670654,1.750160522,-1.97274765
9.676327972,1.899549866,-2.352358246
9.360933838,1.75749527,-2.541714478
9.568701782,1.630409546,-1.90254364
8.666677551,1.798659668,-1.564696198
9.071136475,1.521885223,-1.197060699
9.946366425,1.562301178,-0.6210585022
9.711055756,1.643282776,-1.053658905
10.1099762,1.477277985,-1.605860596
9.236392822,1.719174957,-2.372715912
8.202642517,2.021546173,-2.723137207
9.341474304,1.749861145,-2.267185364
10.53254745,0.8051756287,-2.319277039
10.0807869,0.3013233948,-1.656006317
10.52281769,-0.09175918579,-1.266815643
9.809850311,0.5284011841,-1.154549103
9.29866333,0.8331674194,-1.720222778
8.978179779,0.7375163269,-1.453327789
8.009843445,1.025816803,-0.9011260986
8.463549957,1.271306305,-1.347497864
9.838889923,1.375789032,-1.584604797
10.96469879,1.982028351,-1.395697632
12.19993011,2.110012207,-2.275268555
10.09964767,0.8604107666,-1.554217987
9.713151398,0.1119671631,-1.35962265
8.850944366,0.1354682922,0.007634124756
8.743767242,0.5099894714,-0.005837860107
9.15361496,0.170944519,0.2688409424
9.238488464,0.2501298523,0.01107696533
9.54789505,0.232616272,-0.1601669312
10.12674133,0.007933502197,-0.1101708984
10.34169434,0.0679586792,-0.5533992004
10.73328003,0.1585203552,-0.8626560974
9.709259491,-0.09954299927,-0.8119116211
9.534572754,-0.3623963928,-0.7131170654
9.556576996,-0.2270777893,0.02215393066
9.549841003,-0.1754351807,0.3776646423
9.682614899,-0.2592608643,0.7117698669
9.401798859,-0.1785786438,0.9071136475
8.985813904,-0.1086740112,0.6321354675
9.849966888,-0.3165916443,0.6899153137
10.2518811,-0.2637515259,1.651216278
9.631870422,0.05538482666,0.8273295593
9.824519806,-0.4185296631,-0.02320175171
10.13437546,-0.4454736328,0.8713380432
10.24439667,0.2142045593,1.281485138
9.308243408,-0.4034111023,-0.1037342834
9.168883209,-0.5261558533,0.1788780212
10.48135391,0.1224453735,1.080453186
10.04396347,0.176333313,2.411934357
9.569749603,-0.3746708679,1.276695099
10.46443909,-0.3150947571,0.1167572021
9.269623718,-0.1053808594,0.1035845947
10.22149429,-0.06780899048,0.2142045593
10.17928207,-0.209564209,0.119002533
9.436077576,-0.1134640503,0.6679110718
9.539961548,-0.1202000427,1.296154633
10.02210892,-0.2793191528,1.254391479
9.383536835,0.04715194702,1.414708099
9.926757202,-0.04326004028,0.639919281
10.02405487,-0.5333409119,1.060993652
10.01686981,-0.1486408997,0.4526586914
9.464518433,-0.3070115662,0.4601431274
9.737550659,-0.5243595886,1.341660004
9.753417664,-0.05942642212,1.58430542
9.743089142,-0.2799179077,1.591041412
8.764573975,-0.4314028931,0.9047186279
10.21460861,-0.01182540894,1.293609924
10.28136978,0.245489502,0.9886940002
10.11761032,0.06840774536,0.0477507019
10.16146912,-0.1707948303,0.5258564758
9.879305878,0.2076182556,1.217717743
9.753118286,0.1184037781,1.922901306
9.804611206,-0.1282832336,0.9478289795
10.02570145,0.1454974365,0.9270222473
9.807455292,-0.06197113037,1.831740875
9.472601624,-0.2136058044,1.78668457
9.449250183,-0.2037263489,1.409768372
9.493707733,-0.2683918762,1.521885223
10.14694931,-0.1848655701,1.891017609
10.11596375,-0.1694476318,1.822011108
10.407258,0.1080752563,1.524130554
9.89187973,0.08382568359,1.63115799
9.81703537,0.02140548706,1.843416595
9.350006561,-0.0419128418,2.42091568
9.594897308,-0.1134640503,2.117646332
9.773176575,-0.04251159668,2.03247345
9.857601013,-0.1472937012,1.814376984
9.804910583,-0.1097218323,1.739083557
9.85685257,-0.007484436035,1.731599121
9.871821442,0.1459465027,1.44150238
9.760602722,0.200433197,1.529669037
9.622290344,0.2839595032,1.950893097
9.558822327,0.246537323,1.871857452
9.884544983,0.398770752,1.728156281
9.569300537,0.4222718811,1.48835495
9.977501678,0.5492079163,1.164129181
9.685758362,0.5126838684,1.429527283
9.84622467,0.5562432861,1.20050354
9.989327087,0.4810995483,0.8425978088
9.828262024,0.475411377,0.4378395081
9.728569336,0.5792953491,0.6792874146
9.651629333,0.5200186157,0.4953199768
9.491911469,0.5155279541,0.6659651184
9.730515289,0.7140151978,0.6719526672
9.78425354,0.7408094788,0.9210346985
9.770482178,0.7896080017,0.54292099
9.787247314,0.8318202209,0.07020401001
9.797875214,0.7313790894,-0.2079176331
9.720785522,0.7735913086,-0.1089733887
9.81823288,0.7418572998,0.05074447632
9.700427856,0.8156538391,0.08367599487
9.704469452,0.7349716187,0.09924362183
9.856104126,0.8159532166,0.03143463135
9.901010742,0.8628057861,0.1169068909
9.820927277,0.8202941895,0.2140548706
9.782307587,0.7614665222,-0.07125183105
9.873018951,0.6947053528,-0.2935395813
9.736652527,0.7696994019,-0.4740641785
9.968071289,0.6994953918,-0.3504212952
9.926757202,0.7066804504,-0.1577719116
9.801916809,0.7042854309,-0.2392025757
9.679022369,0.6881190491,-0.2161505127
9.664352875,0.6586303711,-0.002993774414
9.781708832,0.6304888916,0.1972897339
9.591005402,0.4411326599,0.05313949585
9.820178833,0.5634283447,-0.4002676392
9.724827118,0.6926097107,-0.6292913818
9.925110626,0.7069798279,-0.4926255798
9.901010742,0.7286846924,-0.5614823914
9.678273926,0.7458988953,-0.7197033691
9.500892792,0.7092251587,-0.6258485413
9.713899841,0.8000862122,-0.232616272
9.860594788,0.6499484253,-0.06586303711
9.941277008,0.7083270264,-0.3769161987
9.759854279,0.6944059753,-0.735869751
9.741442566,0.6911128235,-0.6773414612
9.934690704,0.5897735596,-0.2595602417
9.708361359,0.6167175293,-0.2254312134
9.654922485,0.4640350342,-0.5228627014
9.846823425,0.5647755432,-0.7378157043
10.05968079,0.458795929,-0.2811154175
9.820029144,0.5902226257,-0.1305285645
9.717791748,0.5917195129,-0.3844006348
9.831555176,0.4915777588,-0.4086502075
9.821975098,0.5785469055,-0.3492237854
9.909992065,0.6325845337,-0.35102005
9.820328522,0.5284011841,-0.6647676086
9.611961823,0.5584886169,-0.5508544922
9.598789215,0.5972579956,-0.365539856
9.759854279,0.4851411438,-0.2345622253
9.658365326,0.4468208313,-0.3115022278
9.832004242,0.5694158936,-0.2498304749
9.898765411,0.505947876,-0.2270777893
9.716145172,0.6132746887,-0.5281018066
9.805808716,0.5418731689,-0.6709048462
9.81119751,0.3881428528,-0.4676275635
9.94217514,0.5445675659,-0.5195695496
9.790241089,0.4513114929,-0.6402186584
9.926158447,0.4251159668,-0.5977070618
9.968969421,0.4646337891,-0.6867718506
9.73979599,0.4599934387,-0.6424639893
9.922565918,0.3773652649,-0.6788383484
9.934241638,0.4499642944,-0.3124003601
9.873018951,0.3818559265,-0.5116360474
9.736053772,0.3236270142,-0.7515870667
9.82526825,0.3751199341,-0.616867218
9.722731476,0.412691803,-0.4677772522
9.780361633,0.4194277954,-0.6735992432
9.582772522,0.4233197021,-0.6496490479
9.819430389,0.3444337463,-0.5752537537
9.626182251,0.3094065857,-0.6382727051
9.730365601,0.3188369751,-0.6815327454
9.75147171,0.2908451843,-0.6325845337
9.521699524,0.2387535095,-0.4529580688
9.570498047,0.2857557678,-0.4565505981
9.376651154,0.008232879639,-0.4975653076
10.06926086,-0.02829116821,-0.452359314
9.357790375,0.2514770508,-0.8577163696
9.486971741,0.1941462708,-0.5706134033
9.56540863,0.3463796997,-0.6497987366
9.436077576,0.509690094,-0.5152285767
9.912536774,0.1064286804,-0.7908055115
9.753267975,-0.08921447754,-0.6888674927
9.67782486,-0.1422042847,-0.83661026
9.585466919,-0.3562591553,-0.6752458191
9.724677429,-0.1203497314,-0.7717950439
9.842931519,-0.1734892273,-0.8452922058
9.800719299,-0.2832110596,-1.113833771
9.706565094,-0.1927990723,-1.011895752
9.576635284,-0.3080593872,-1.125210114
9.563612366,-0.3963757324,-0.9309141541
9.782307587,-0.1151106262,-0.9210346985
9.564959564,-0.2924917603,-0.796942749
9.917476501,-0.309256897,-0.7858657837
9.798174591,-0.3429368591,-0.6063890076
9.783205719,-0.2198927307,-0.5953120422
9.801467743,-0.3442840576,-0.8663983154
9.845775604,-0.2592608643,-0.7878117371
9.668993225,-0.3481759644,-0.7858657837
9.595346375,-0.4349954224,-0.9252259827
9.718540192,-0.3592529297,-0.8449928284
9.573042755,-0.4189787292,-0.7044351196
9.707912292,-0.3426374817,-0.8608598328
9.828112335,-0.3517684937,-0.6762936401
9.589807892,-0.435743866,-0.4272116089
9.698481903,-0.5228627014,-0.5637277222
9.696835327,-0.4697232056,-0.5903723145
9.582473145,-0.374072113,-0.5652246094
9.843530273,-0.4601431274,-0.7214996338
9.862540741,-0.4578977966,-0.8068222046
9.736502838,-0.4944218445,-0.8297245789
9.644294586,-0.5834866333,-0.8378077698
9.627978516,-0.4947212219,-0.8181985474
9.760303345,-0.5095404053,-0.6216572571
9.744286652,-0.6057902527,-0.8066725159
9.785301361,-0.5565426636,-0.6744973755
9.725276184,-0.6015989685,-0.6083349609
9.618997192,-0.6041436768,-0.6267466736
9.701775055,-0.5893244934,-0.6072871399
9.865534515,-0.5676196289,-0.4897814941
9.861642609,-0.5571414185,-0.5584886169
9.674382019,-0.5231620789,-0.6288423157
9.684560852,-0.4644841003,-0.5352868652
9.785600739,-0.5390290833,-0.5769003296
9.699829102,-0.5472619629,-0.4914280701
9.672436066,-0.4233197021,-0.6179150391
9.540111237,-0.5339396667,-0.6438111877
9.736203461,-0.4351451111,-0.3872447205
9.788295135,-0.4728666687,-0.4565505981
9.590706024,-0.5641767883,-0.6173162842
9.629026337,-0.5396278381,-0.5837860107
9.664801941,-0.4498146057,-0.5243595886
9.590256958,-0.5418731689,-0.6976991272
9.661658478,-0.5072950745,-0.398770752
9.627379761,-0.302820282,-0.513432312
9.560468903,-0.4664300537,-0.7735913086
9.617649994,-0.4397854614,-0.4993615723
9.393266602,-0.4376898193,-0.4149371338
9.663305054,-0.5153782654,-0.7110214233
9.64968338,-0.500559082,-0.7087760925
9.714348907,-0.4165837097,-0.7033872986
9.532327423,-0.4692741394,-0.8292755127
9.55029007,-0.5469625854,-0.8481362915
9.726623383,-0.4493655396,-0.597557373
9.309740295,-0.3013233948,-0.8572673035
9.251361694,-0.7643106079,-1.246607666
9.52095108,-0.5496569824,-1.235530701
9.223369904,-0.3939807129,-1.032403107
9.399403839,-0.6072871399,-0.7315287781
9.725575562,-0.4890330505,-0.5453160095
9.726473694,-0.4284091187,-0.9310638428
9.759105835,-0.5583389282,-1.209335175
9.628577271,-0.4138893127,-1.131946106
9.610614624,-0.4096980286,-1.12565918
9.821076965,-0.4535568237,-0.8385562134
9.75506424,-0.43409729,-0.79215271
9.700128479,-0.5272036743,-0.9689350891
9.883347473,-0.5128335571,-0.9355545044
9.626481628,-0.506995697,-0.8753796387
9.814041595,-0.55579422,-1.003213806
9.916728058,-0.4468208313,-0.9366023254
9.625583496,-0.4980143738,-0.8952882385
9.831555176,-0.6010002136,-1.112935638
9.724677429,-0.4742138672,-1.027762756
9.75266922,-0.5921685791,-0.6836283875
9.735305328,-0.5276527405,-0.6791377258
9.525441742,-0.5279521179,-0.5150788879
9.870773621,-0.4653822327,-0.7427554321
9.718390503,-0.4453239441,-1.079255676
9.823322296,-0.5897735596,-1.30229187
9.657317505,-0.556842041,-1.212478638
9.645941162,-0.4998106384,-1.269060974
9.793833618,-0.5240602112,-1.0484198
9.712552643,-0.4914280701,-1.056802368
9.719588013,-0.5340893555,-0.7806266785
9.77257782,-0.5635780334,-0.5635780334
9.67078949,-0.4490661621,-0.6340814209
9.83574646,-0.3725752258,-0.8164022827
9.68950058,-0.5779481506,-0.7113208008
9.830956421,-0.470022583,-0.9496252441
9.815239105,-0.5562432861,-1.061592407
9.663005676,-0.4562512207,-1.267264709
9.593849487,-0.4691244507,-1.255738678
9.942025452,-0.5267546082,-1.048569489
9.537267151,-0.4797523499,-0.9910890198
9.373208313,-0.5532495117,-1.014141083
9.929002533,-0.3984713745,-1.012943573
9.745783539,-0.5249583435,-0.8105644226
9.64504303,-0.3710783386,-0.8303233337
10.12284943,-0.5556445313,-0.9779164124
9.625882874,-0.2104623413,-1.08703949
9.894574127,-0.17902771,-1.189276886
9.473200378,-0.07963439941,-1.483864288
9.683812408,-0.1657054138,-1.088536377
9.610614624,-0.2091151428,-1.229842529
9.500144348,-0.1395098877,-1.57727005
9.335187378,0.08307723999,-1.372346191
9.714199219,-0.2716850281,-1.48251709
9.24013504,-0.1682501221,-1.823507996
9.315278778,-0.02484832764,-2.374512177
9.577383728,-0.2091151428,-2.819985809
9.498198395,-0.4502636719,-2.709515533
9.260492706,-0.6176156616,-3.024610291
9.089398499,-0.5999523926,-2.900218964
9.322463837,-0.5936654663,-2.696342926
9.133856049,-0.4501139832,-2.587968292
9.362281036,-0.4513114929,-2.837948456
9.763446808,-0.4339476013,-2.799777832
9.088200989,-0.6248007202,-2.74499176
9.391620026,-0.5525010681,-2.722089386
9.730365601,-0.8214916992,-2.876867523
9.134005737,-0.4381388855,-2.958896942
9.320068817,-0.9119036865,-3.036735077
9.245224457,-0.3617976379,-2.998564453
9.422156525,-0.5222639465,-2.454595642
9.618248749,-0.6716532898,-2.239193573
9.24956543,-0.3993695068,-2.190993805
9.567204895,-0.8445437622,-2.574795685
8.940308533,-0.6439608765,-2.629432068
9.656269684,-1.089883575,-2.554737396
9.065298615,-0.7427554321,-2.687211914
9.472601624,-1.105301514,-2.65143631
9.481882324,-0.9815089417,-2.350561981
9.338779907,-0.9294172668,-2.386337585
9.506730652,-1.09048233,-2.477797394
9.482481079,-0.9677375793,-2.351011047
9.351054382,-0.9684860229,-2.29802124
9.620045013,-1.076860657,-2.116299133
9.509724426,-1.111438751,-2.147584076
9.305399323,-1.211879883,-2.056273956
9.555978241,-1.226998444,-2.180365906
9.436077576,-1.220711517,-2.262095947
9.391021271,-1.457219696,-2.215542755
9.557624817,-1.358724518,-2.046693878
9.665251007,-1.472937012,-1.89550827
9.631870422,-1.39000946,-1.923350372
9.36422699,-1.453776855,-1.795366516
9.476343842,-1.495989075,-1.814975739
9.662257233,-1.403930511,-1.873803406
9.332792358,-1.566492462,-1.766925659
9.454788666,-1.456171875,-1.733694763
9.570797424,-1.455124054,-1.846560059
9.42619812,-1.694775696,-1.702858887
9.526639252,-1.703457642,-1.759590912
9.545649719,-1.841620331,-1.779200134
9.533075867,-1.816921692,-1.710193634
9.533225555,-1.879042511,-1.594633942
9.521100769,-2.000589752,-1.490151215
9.577533417,-1.963766327,-1.619182892
9.508975983,-1.91781189,-1.665436707
9.709558868,-1.935175781,-1.63115799
9.560019836,-1.982926483,-1.612446899
9.42619812,-1.883084106,-1.813778229
9.629924469,-1.951342163,-1.895358582
9.371711426,-1.949994965,-1.622476044
9.560618591,-1.956281891,-1.663939819
9.542206879,-1.91421936,-1.740580444
9.468260651,-2.097887421,-1.613345032
9.543853455,-2.174228668,-1.766027527
9.504185944,-2.058668976,-1.734293518
9.474846954,-2.12258606,-1.734742584
9.43203598,-2.215243378,-1.749711456
9.423653412,-2.283351746,-1.81602356
9.441915436,-2.198178864,-1.761686554
9.536818085,-2.186353455,-1.827848969
9.383686523,-2.175426178,-1.932331696
9.400002594,-2.177222443,-1.820963287
9.533524933,-2.30969696,-1.728006592
9.361083527,-2.175575867,-1.925745392
9.526190186,-2.260898438,-1.937421112
9.423204346,-2.21853653,-1.814975739
9.474846954,-2.175575867,-1.885628815
9.387728119,-2.281555481,-2.164498901
9.427245941,-2.250869293,-2.021097107
9.438622284,-2.263443146,-1.967957611
9.470056915,-2.306703186,-1.942809906
9.427245941,-2.38469101,-1.994602203
9.326655121,-2.350112915,-1.992207184
9.322912903,-2.353256378,-1.999841309
9.358538818,-2.295326843,-2.083068237
9.474547577,-2.37406311,-2.131268005
9.402397614,-2.203867035,-2.27931015
9.375303955,-2.394420776,-2.476749573
9.27995224,-2.345322876,-2.442770233
9.48008606,-2.295925598,-2.116598511
9.424551544,-2.260449371,-2.084116058
9.401200104,-2.210453339,-2.214195557
9.531129913,-2.280357971,-2.289189606
9.429341583,-2.389481049,-2.074236603
9.417216797,-2.24308548,-2.213596802
9.379046173,-2.123334503,-2.254910889
9.489217072,-2.150727539,-2.128573608
9.422455902,-2.17168396,-2.010319519
9.282946014,-2.14833252,-2.148931274
9.316027222,-2.153871002,-2.271825714
9.476792908,-2.189496918,-2.218686218
9.446406097,-2.110461273,-2.099983063
9.51750824,-2.079775085,-2.177671509
9.337133331,-2.171234894,-2.180814972
9.490713959,-2.247875519,-2.173031158
9.430539093,-2.145189056,-2.063159637
9.458081818,-2.123633881,-2.208058319
9.396709442,-2.11555069,-2.284848633
9.32680481,-2.120041351,-2.089953918
9.474697266,-2.217638397,-1.910926208
9.430389404,-2.244582367,-1.991907806
9.347611542,-2.351310425,-2.031126251
9.356443176,-2.257605286,-2.156565399
9.558972015,-2.255809021,-2.127675476
9.390272827,-2.167342987,-2.135608978
9.366771698,-2.137105865,-1.965562592
9.462273102,-2.027982788,-1.901645508
9.517807617,-2.196831665,-2.041903839
9.371561737,-2.194436646,-2.010469208
9.409432983,-2.251917114,-2.01600769
9.209149475,-2.22078186,-2.041903839
9.432934113,-2.139051819,-1.891316986
9.697434082,-2.208806763,-1.777553558
9.636061707,-2.169588318,-1.893412628
9.586215363,-1.989063721,-2.081122284
9.488318939,-1.972298584,-2.027533722
9.420659637,-2.180365906,-1.850302277
9.535470886,-2.053429871,-1.844913483
9.511520691,-2.168989563,-1.976040802
9.497300262,-2.186203766,-2.147883453
9.394314423,-2.149380341,-2.090552673
9.442214813,-2.183060303,-1.883682861
9.635912018,-2.205214233,-1.914967804
9.451345825,-2.27586731,-1.884730682
9.445957031,-2.284100189,-1.966610413
9.354646912,-2.260748749,-1.96930481
9.38877594,-2.373015289,-1.822011108
9.576186218,-2.256258087,-1.862876129
9.577084351,-2.381248169,-1.970053253
9.559421082,-2.281256104,-2.278262329
9.401798859,-2.307751007,-2.255060577
9.370513916,-2.210004272,-2.141596527
9.395511932,-1.83817749,-1.864822083
9.528136139,-1.633852386,-1.840422821
9.526339874,-1.721869354,-2.00088913
9.381291504,-1.633253632,-2.214494934
9.353599091,-1.581012268,-2.272873535
9.686506805,-1.682351532,-2.213896179
9.42036026,-1.448088684,-2.015408936
9.452543335,-1.582958221,-1.873803406
9.28698761,-1.60541153,-2.000589752
9.460626526,-1.345851288,-2.130220184
9.379046173,-1.360071716,-2.387235718
9.480535126,-1.331630859,-2.295177155
9.746981049,-1.432970123,-2.176773376
9.604776764,-1.349892883,-2.047142944
9.544751587,-1.395098877,-1.981878662
9.4437117,-1.426683197,-2.071691895
9.314680023,-1.328188019,-2.1260289
9.294322357,-1.632505188,-2.107916565
9.631121979,-1.738933868,-2.174378357
9.506580963,-1.89086792,-2.054926758
9.526489563,-1.909129944,-1.848805389
9.570947113,-1.97514267,-1.977687378
9.569599915,-2.010618896,-2.104024658
9.412426758,-2.113604736,-2.051932983
9.477241974,-2.049537964,-2.207609253
9.457333374,-2.076481934,-2.175276489
9.450148315,-2.075134735,-1.987716522
9.564211121,-2.080972595,-1.742825775
9.501940613,-2.085762634,-1.83473465
9.482181702,-1.699565735,-2.123783569
9.455986176,-1.070424042,-2.156715088
9.641300812,0.1540296936,-1.888622589
9.745184784,-0.8000862122,-1.349294128
9.681866455,0.1372645569,-0.9678872681
9.750723267,-0.2445913696,-1.061442719
9.791588287,-0.310304718,-0.422870636
9.838440857,-0.4993615723,-0.4309538269
9.424401855,0.4953199768,-0.192948761
10.0846788,-0.4599934387,0.03712280273
9.588760071,0.007933502197,-0.9789642334
9.725575562,-0.2809657288,-0.5117857361
9.89771759,-0.2237846375,-0.6948550415
9.836794281,-0.4117936707,-0.2493814087
9.717192993,-0.09624984741,-0.5200186157
9.63336731,-0.2136058044,-0.1842668152
9.778864746,-0.2472857666,-0.5170248413
9.522747345,-0.1880090332,-0.5953120422
9.703421631,-0.2089654541,-0.7250921631
9.725425873,-0.3025209045,-0.5339396667
9.719438324,-0.277073822,-0.3067121887
9.954150238,-0.2023791504,-0.5468128967
9.707313538,-0.2627037048,-0.5661227417
9.795330505,-0.1809736633,-0.4245172119
9.760003967,-0.08427474976,-0.5677693176
9.691895599,-0.1199006653,-0.730480957
9.850116577,-0.1296304321,-0.7810757446
9.796977081,-0.005837860107,-0.5400769043
9.968969421,0.07005432129,-0.5366340637
9.728719025,-0.003442840576,-0.6015989685
9.761351166,0.07394622803,-0.6248007202
9.718989258,0.1172062683,-0.5089416504
9.639803925,0.09879455566,-0.5218148804
9.760003967,0.1856140137,-0.5110372925
9.852810974,0.3206332397,-0.5746549988
9.82751358,0.2314187622,-0.4929249573
9.838141479,0.3776646423,-0.743354187
9.688003693,0.4562512207,-0.6601272583
9.61809906,0.380508728,-0.6321354675
9.624835052,0.3975732422,-0.6306385803
9.733808441,0.4734654236,-0.4577481079
9.971065063,0.4123924255,-0.5025050354
9.800868988,0.4559518433,-0.6256988525
9.733658752,0.5677693176,-0.7780819702
9.674382019,0.6310876465,-0.7861651611
10.00968475,0.5105882263,-0.8512797546
9.536668396,0.7490423584,-0.6668632507
9.771230621,0.5516029358,-0.3788621521
9.679321747,0.4583468628,-0.4860392761
9.137897644,0.6007008362,-0.5252577209
9.380842438,0.6532415771,-0.7078779602
9.569150848,0.6735992432,-0.7012916565
9.564809875,1.037193146,-0.3478765869
10.17164795,0.6680607605,-0.8454418945
9.771529999,0.7303312683,-1.056502991
9.703870697,0.9596543884,-0.5643264771
10.19694534,0.9421408081,-1.181193695
9.671687622,0.8352630615,-0.7424560547
9.826615448,0.8767268372,-0.7168592834
9.96447876,0.8451425171,-0.817300415
9.681567078,0.8890013123,-0.7717950439
9.683962097,1.287772064,-0.6370751953
9.869576111,0.9560618591,-0.844094696
9.724228363,1.028211823,-0.8080197144
9.688452759,0.9090596008,-0.7418572998
9.788444824,0.9809101868,-0.7851173401
9.705966339,0.877325592,-0.8322692871
9.809850311,0.9633966064,-0.8530760193
9.672585754,0.952918396,-0.7661068726
9.826016693,0.8692424011,-0.8388555908
9.864337006,0.8663983154,-0.8834628296
9.79952179,0.8101153564,-0.6011499023
9.755962372,0.7964936829,-0.5608836365
9.653724976,0.8626560974,-0.7836204529
9.661059723,0.8598120117,-0.8710386658
9.821825409,0.8252339172,-0.8684939575
9.890083466,0.812510376,-0.6119274902
9.762848053,0.5653742981,-0.489332428
9.796078949,0.5945635986,-0.6706054688
9.870623932,0.7843688965,-0.9351054382
9.758207703,0.7979905701,-0.7517367554
9.461824036,0.8352630615,-0.5580395508
9.593999176,0.8271798706,-0.5542973328
9.640552368,0.9366023254,-0.8238867188
9.928104401,0.8819659424,-0.852177887
9.801168365,0.7042854309,-0.9958790588
9.656868439,0.7228468323,-1.01803299
9.519903259,0.5831872559,-1.068478088
9.732012177,0.6381230164,-0.9357041931
9.479487305,0.5221142578,-0.8405021667
9.884095917,0.4730163574,-0.8298742676
10.02345612,0.7226971436,-1.251846771
9.561516724,0.506995697,-0.9864486694
10.07494904,0.6126759338,-1.074315948
10.49422714,0.4658312988,-1.304836578
9.687255249,0.7217990112,-1.57727005
9.746082916,0.4864883423,-0.9662406921
10.09740234,0.5743556213,-0.7761360168
10.62939606,0.5267546082,-1.42638382
8.893905029,0.5550457764,-0.8083190918
9.805808716,0.3122506714,-1.006506958
10.08482849,0.6210585022,-1.050964508
9.55957077,0.5995033264,-1.451381836
9.353599091,0.6509962463,-1.193019104
9.414223022,0.6035449219,-1.078207855
9.564211121,0.7551795959,-1.384770355
9.496701508,0.5712121582,-1.405427399
9.386979675,0.4327500916,-1.333427124
9.434131622,0.4486170959,-1.231489105
9.583071899,0.5525010681,-1.427281952
9.66719696,0.4779560852,-1.283431091
9.789941711,0.460891571,-1.221759338
9.676178284,0.5545967102,-1.339264984
9.99366806,0.5742059326,-1.296304321
10.05698639,0.4974156189,-1.08344696
9.744136963,0.4796026611,-1.087787933
9.61929657,0.419128418,-0.9559121704
9.566157074,0.4071533203,-0.9972262573
9.737101593,0.4697232056,-0.8053253174
9.799072723,0.4709207153,-1.09407486
9.759405212,0.4522096252,-0.9756710815
10.10338989,0.5424719238,-1.037342834
9.626481628,0.4857398987,-1.21457428
9.844877472,0.5596861267,-1.226848755
9.835596771,0.3920347595,-1.17131424
9.723030853,0.5114863586,-1.292113037
9.642348633,0.4869374084,-1.179696808
9.508377228,0.3787124634,-0.8075706482
9.814191284,0.3966751099,-1.110540619
9.871821442,0.5060975647,-1.216220856
9.877359924,0.3734733582,-1.133742371
9.541757813,0.3806584167,-1.30348938
9.73515564,0.1606159973,-1.284478912
9.685758362,-0.04999603271,-1.221310272
9.575288086,-0.06062393188,-1.168320465
9.873468018,0.007035369873,-1.3549823
9.962981873,0.05358856201,-1.371597748
9.712402954,0.09924362183,-1.136436768
9.821825409,0.05119354248,-1.381626892
9.41571991,-0.07768844604,-1.38072876
9.825717316,-0.06137237549,-1.826052704
9.717043304,-0.2600093079,-1.738035736
9.893975372,-0.2302212524,-2.016157379
9.644893341,-0.4305047607,-1.700014801
9.876312103,-0.4505630493,-1.726060638
9.20271286,-0.5246589661,-1.708696747
10.11326935,-0.2430944824,-1.657203827
10.09845016,-0.254021759,-1.961221619
9.632319489,-0.2784210205,-1.925595703
10.07824219,-0.3058140564,-2.118694153
9.461524658,-0.4346960449,-1.818568268
9.603429565,-0.4005670166,-1.748963013
9.622290344,-0.5240602112,-1.468296661
9.242080994,-0.3525169373,-1.241667938
9.836345215,-0.3775149536,-1.338067474
9.626781006,-0.4490661621,-1.422192535
9.20151535,-0.2360591125,-0.9642947388
9.660011902,-0.6330335999,-1.274749146
9.699380035,-0.4478686523,-1.611099701
9.79473175,-0.4703219604,-1.488205261
9.643396454,-0.6035449219,-1.443747711
9.783654785,-0.4090992737,-1.790127411
9.632469177,-0.5382806396,-1.70016449
9.838740234,-0.5086422729,-1.453926544
9.794582062,-0.5054988098,-1.400038605
9.515711975,-0.4465214539,-1.317859497
9.700577545,-0.3528163147,-0.9383985901
9.708061981,-0.3935316467,-1.144669647
9.734107819,-0.4176315308,-1.187779999
9.627080383,-0.417481842,-1.161734161
9.236542511,-0.5882766724,-1.237626343
9.395661621,-0.5637277222,-1.086440735
9.364975433,-0.6089337158,-0.9747729492
9.933942261,-0.4909790039,-0.8978329468
10.13527359,-0.3791615295,-1.06713089
9.85565506,-0.2595602417,-1.064885559
9.852212219,-0.3164419556,-1.134191437
9.975256348,-0.1538800049,-1.01324295
9.736203461,-0.3255729675,-0.9812095642
9.851613464,-0.3626957703,-1.073567505
9.759105835,-0.2630030823,-1.094374237
9.449699249,-0.3400927734,-0.9283694458
9.717043304,-0.3034190369,-0.7009922791
9.822124786,-0.3646417236,-0.8708889771
9.683962097,-0.4763095093,-0.8240364075
9.82871109,-0.3688330078,-0.7952961731
9.780062256,-0.3516188049,-0.895587616
9.836794281,-0.28081604,-0.9150471497
9.753267975,-0.2089654541,-0.8232879639
9.790390778,-0.2517764282,-0.6209088135
9.713899841,-0.2754272461,-0.7298822021
9.752968597,-0.3158432007,-0.7385641479
9.520052948,-0.2812651062,-0.7137158203
9.74802887,-0.323177948,-0.7668553162
9.675729218,-0.4498146057,-0.6333329773
9.572444,-0.3525169373,-0.7375163269
9.893526306,-0.3620970154,-0.8839118958
9.908495178,-0.3152444458,-0.7719447327
9.675280151,-0.3731739807,-0.6918612671
9.602531433,-0.4080514526,-0.8476872253
9.65088089,-0.37676651,-0.7424560547
9.681118011,-0.370329895,-0.5252577209
9.697284393,-0.4156855774,-0.4646337891
9.838590546,-0.3261717224,-0.4605921936
9.742490387,-0.3074606323,-0.5330415344
9.93169693,-0.2803669739,-0.2700384521
9.917925568,-0.2956352234,-0.3234773254
9.734706573,-0.4637356567,-0.4980143738
9.972112885,-0.2950364685,-0.2996768188
9.744586029,-0.3600013733,-0.1655557251
9.746232605,-0.4007167053,-0.3719764709
9.732161865,-0.3520678711,-0.4150868225
9.617799683,-0.37676651,-0.3143463135
9.712253265,-0.4252656555,-0.5001100159
9.603878632,-0.3954776001,-0.452359314
9.567204895,-0.3279679871,-0.4948709106
9.82047821,-0.383203125,-0.5849835205
9.767488403,-0.4158352661,-0.5698649597
9.73859848,-0.4189787292,-0.3469784546
9.76434494,-0.312999115,-0.4354444885
9.609117737,-0.4525090027,-0.3171903992
9.666598206,-0.2915936279,-0.2484832764
9.878407745,-0.4610412598,-0.4108955383
9.784852295,-0.3695814514,-0.6403683472
9.939181366,-0.346230011,-0.6472540283
9.955347748,-0.3829037476,-0.539178772
9.675729218,-0.512384491,-0.5095404053
9.586215363,-0.4257147217,-0.5102888489
9.82526825,-0.3659889221,-0.3348536682
9.772727509,-0.4355941772,-0.2182461548
9.680968323,-0.4426295471,-0.3278182983
9.942923584,-0.3604504395,-0.4842430115
9.847871246,-0.3620970154,-0.2333647156
9.743538208,-0.3107537842,-0.439486084
9.946516113,-0.2856060791,-0.4706213379
9.947114868,-0.6562353516,-0.05733078003
9.602681122,0.286204834,-0.7354206848
9.887688446,-0.3511697388,-0.3996688843
9.789792023,-0.3124003601,-0.6971003723
9.350455627,0.06316864014,-1.062041473
10.10503647,-0.2460882568,0.3751199341
9.263486481,0.06496490479,-0.8882528687
9.701625366,0.4192781067,-1.528321838
9.774224396,-0.2213896179,-1.391656036
9.885742493,-0.8771759033,-2.301164703
8.963360596,-0.3604504395,-2.575544128
9.639354858,-0.2998265076,-2.417472839
9.385033722,-0.1492396545,-1.867217102
9.792636108,-0.2291734314,-1.854942627
9.546547852,-0.3857478333,-2.234553223
9.602232056,-0.5542973328,-2.341880035
9.582922211,-0.579894104,-2.207758942
9.62977478,-0.6036946106,-2.63856308
9.557475128,-0.5818400574,-2.40220459
9.315129089,-0.5674699402,-2.186652832
9.53621933,-0.535436554,-2.443518677
9.237889709,-0.217048645,-2.779420166
9.390422516,-0.5360353088,-2.527943115
8.948990479,-0.9683363342,-2.31792984
9.577683105,-0.8987310791,-2.315085754
9.67423233,-0.8794212341,-2.696342926
9.724078674,-0.1941462708,-2.513123932
9.430539093,-0.4933740234,-2.453547821
9.403445435,-0.6596781921,-2.698288879
9.427096252,-0.8363108826,-2.138003998
9.135802002,-0.3864962769,-1.817370758
9.519603882,-0.7493417358,-1.77740387
9.475296021,-0.5484594727,-1.656455383
9.184750214,-0.7596702576,-1.867366791
9.793085175,-0.878972168,-2.017354889
9.191635895,-0.4885839844,-2.086062012
9.57603653,-1.245859222,-2.409689026
9.487869873,-0.6237528992,-2.443967743
9.474846954,-1.19930603,-2.558180237
9.57603653,-1.09991272,-2.345173187
9.326206055,-0.7509883118,-2.347568207
9.578581238,-1.176553345,-2.248474274
9.388476563,-0.9476792908,-1.934277649
9.457632751,-1.161135406,-1.944905548
9.407037964,-1.207987976,-1.896855469
9.364526367,-1.218615875,-2.173929291
9.419911194,-1.396895142,-2.17991684
9.381590881,-1.397493896,-2.033221893
9.529034271,-1.401984558,-1.862876129
9.436077576,-1.463506622,-1.827998657
9.35255127,-1.619482269,-1.562750244
9.492659912,-1.714235229,-1.691632233
9.524094543,-1.864073639,-1.681902466
9.430389404,-1.909279633,-1.754202118
9.494456177,-2.057621155,-1.851350098
9.676178284,-2.129771118,-1.989812164
9.795330505,-2.161355438,-2.000739441
9.560468903,-1.979483643,-1.93772049
9.637259216,-1.969903564,-1.921105042
9.500892792,-1.901645508,-2.007625122
9.497000885,-1.925745392,-1.940265198
9.366622009,-1.989961853,-1.713337097
9.482032013,-1.969903564,-2.05462738
9.211843872,-1.925895081,-2.282453613
9.409432983,-1.997895355,-2.264041901
9.538165283,-2.199076996,-2.355950775
9.378746796,-2.123484192,-2.13306427
9.54205719,-2.110012207,-1.766626282
9.548643494,-1.910327454,-1.767225037
9.513017578,-2.098935242,-1.401236115
9.884095917,-2.0570224,-1.519639893
9.592801666,-2.037562866,-1.50946106
9.347312164,-2.092648315,-1.647024994
9.353599091,-2.161654816,-1.651665344
9.552086334,-1.910327454,-1.814526672
9.790540466,-2.342778168,-2.049388275
9.16529068,-2.337389374,-1.958826599
9.704319763,-2.35415451,-1.621577911
9.655072174,-1.933828583,-1.601220245
9.76673996,-1.942959595,-1.530267792
9.383387146,-1.995500336,-1.654808807
8.997639313,-1.99969162,-1.474134521
9.531279602,-1.968706055,-1.504221954
9.6321698,-2.127376099,-1.588796082
9.268426208,-2.17168396,-1.817071381
9.375303955,-2.194137268,-1.856289825
9.347461853,-2.160457306,-1.988165588
9.398056641,-2.337539063,-1.829345856
9.326954498,-2.377805328,-1.763033752
9.441166992,-2.51566864,-1.679507446
9.511371002,-2.223775635,-1.515897675
9.390123138,-2.218835907,-1.274449768
9.624835052,-2.057321777,-1.166673889
9.810149689,-2.058968353,-1.344354401
9.657467194,-2.124981079,-1.408720551
9.472302246,-2.139650574,-1.406924286
9.537716217,-2.102527771,-1.437161407
9.454638977,-2.10267746,-1.632355499
9.359137573,-2.074086914,-1.908680878
9.039701843,-2.276915131,-1.690883789
9.715845795,-1.925895081,-1.69312912
9.431886292,-2.178419952,-1.564247131
9.453740845,-2.257605286,-1.716929626
9.843679962,-1.982477417,-1.819167023
9.25300827,-2.434387665,-1.569785614
9.590706024,-2.239942017,-1.468296661
9.518256683,-2.122885437,-1.924398193
9.519903259,-2.368374939,-1.805245972
9.623188477,-2.258353729,-1.817819824
9.479038239,-2.547402649,-1.628313904
9.36766983,-2.522554321,-1.901645508
9.318721619,-2.535427551,-1.956281891
9.500144348,-2.834954681,-1.9481987
9.547146606,-2.778821411,-2.122885437
9.245823212,-2.875520325,-2.098635864
9.415420532,-2.824027405,-2.030377808
9.303153992,-2.941832428,-2.072889404
9.388476563,-2.762205963,-2.153721313
9.409133606,-2.894081726,-2.192341003
9.344168701,-2.926564178,-2.13545929
9.262288971,-2.767594757,-2.152074738
9.417366486,-2.835553436,-2.152374115
9.362281036,-2.763104095,-2.332599335
9.324709167,-2.819985809,-2.380499725
9.296118622,-2.951861572,-2.467319183
9.229207764,-2.764451294,-2.398162994
9.261690216,-2.853516083,-2.556533661
9.317075043,-2.888393555,-2.751128998
9.229058075,-2.922522583,-2.822979584
9.207502899,-2.870879974,-2.779869232
9.374106445,-2.740800476,-2.606679382
9.317973175,-2.676284637,-2.525548096
9.218430176,-2.515069885,-2.80591507
9.386231232,-2.404599609,-2.782563629
9.112151184,-2.169438629,-2.767894135
9.221723328,-1.988315277,-2.816243591
9.257349243,-1.869612122,-2.990630951
9.244026947,-1.80779068,-3.089425507
9.262139282,-1.873504028,-3.15918045
9.369316406,-1.798809357,-3.339106293
9.297765198,-1.57727005,-3.622017975
8.943601685,-1.390159149,-3.757635956
8.882828064,-1.284179535,-3.691473541
9.341623993,-1.276844788,-3.749253387
8.802894287,-0.9168434143,-3.654799805
9.130413208,-0.9901908875,-3.8273909
8.931626587,-0.9388476563,-3.987408142
9.066795502,-0.9954299927,-3.909420319
9.207502899,-0.9563612366,-3.919150085
9.144334259,-1.013392639,-3.834126892
9.05407196,-0.6960525513,-4.245920563
8.814120941,-0.8405021667,-4.203708344
8.701854401,-0.845741272,-3.865860901
9.064999237,-1.154100037,-3.756438446
9.097182312,-0.6346801758,-3.687881012
9.474248199,-1.110690308,-3.771856384
8.792266388,-0.6541397095,-3.980821838
9.27411438,-1.146166534,-4.137845306
8.663234711,-0.6333329773,-4.057761841
9.135352936,-1.098864899,-3.870351563
9.21438858,-0.9960287476,-3.658691711
9.09972702,-0.7550299072,-3.624263306
9.145681458,-1.075513458,-3.488196259
9.020092621,-0.7777825928,-3.590733032
9.357490997,-0.9312135315,-3.310964813
9.236392822,-0.7194039917,-3.06442749
9.391919403,-0.9262738037,-2.90186554
9.487121429,-0.7713459778,-2.76145752
9.305249634,-1.053808594,-2.445614319
9.588760071,-0.6891668701,-2.528392181
9.51047287,-0.5631289673,-2.63736557
9.65552124,-0.793200531,-2.574795685
9.62049408,-0.7484436035,-2.385589142
9.515562286,-0.8196954346,-2.038011932
9.467811584,-0.5168751526,-1.68848877
9.533674622,-0.553099823,-1.13493988
9.719737701,-0.6179150391,-1.112935638
9.678573303,-0.7411088562,-1.382225647
9.767488403,-0.742306366,-1.362167358
9.901459808,-0.8131091309,-0.9572593689
9.826465759,-0.6113287354,-0.4246669006
9.993967438,-0.872535553,-0.2528242493
9.594597931,-0.6176156616,0.06691085815
9.615704041,-0.4351451111,0.2441423035
9.691296844,-0.6054908752,0.277073822
9.870324554,-0.5453160095,0.4767585754
9.98318985,-0.4581971741,1.133592682
10.22957748,-0.4686753845,0.963097229
9.81,-0.5710624695,0.8918453979
9.660610657,-0.5095404053,1.160087585
9.492360535,-0.4905299377,1.146914978
9.30330368,-0.4471202087,1.502575378
9.627230072,-0.5577401733,1.362616425
9.961035919,-0.5063969421,1.297352142
10.20353165,-0.5465135193,1.479373627
9.985285492,-0.5297483826,1.599723358
9.803413696,-0.4457730103,1.835483093
9.552086334,-0.398770752,2.461032257
9.527387695,-0.4403842163,2.169139252
9.491163025,-0.3745211792,2.56716156
9.590706024,-0.1670526123,2.788102112
9.969717865,-0.35102005,2.24652832
9.774074707,-0.4495152283,1.916464691
9.854756927,-0.3957769775,2.16704361
9.735005951,-0.445922699,2.517614594
9.70237381,-0.4947212219,2.845582581
9.550140381,-0.4162843323,2.79184433
9.610614624,-0.4017645264,2.265987854
9.685458984,-0.582588501,2.235151978
9.703721008,-0.2833607483,2.140997772
9.790989532,-0.3421884155,2.302062836
9.734856262,-0.493074646,2.471809845
9.858349457,-0.5340893555,2.236948242
9.740694122,-0.5029541016,1.83114212
9.629625092,-0.4947212219,1.736538849
9.599687347,-0.4999603271,1.639540558
9.733359375,-0.3041674805,1.399888916
9.758357391,-0.4296066284,1.753603363
9.712702332,-0.3505709839,2.007026367
9.923613739,-0.5050497437,1.863474884
9.660460968,-0.3544628906,1.550625458
9.939630432,-0.4369413757,0.9425898743
9.86149292,-0.4631369019,0.3147953796
9.796977081,-0.3772155762,0.01466949463
9.782457275,-0.403560791,0.4023632813
9.673633575,-0.1820214844,0.3650907898
9.744735718,-0.3375480652,0.3260220337
9.784103851,-0.2615061951,-0.2330653381
9.745783539,-0.4055067444,-0.3600013733
9.823172607,-0.4047583008,-0.6472540283
9.736353149,-0.3848497009,-0.7629634094
9.72452774,-0.5751040649,-0.7214996338
9.639354858,-0.4604425049,-0.679586792
9.695787506,-0.1743873596,0.1779798889
9.83454895,0.01811233521,0.3297642517
9.892179108,0.458795929,1.133892059
9.677974548,-0.1359173584,0.4095483398
9.599537659,-0.122744751,0.04146377563
9.601483612,-0.4032614136,-0.5427713013
9.742041321,-0.4698728943,-0.2640509033
9.751172333,-0.3866459656,-0.3291654968
9.859247589,-0.1775308228,-0.4028123474
9.700727234,-0.4257147217,-0.6876699829
9.761051788,-0.37676651,-1.088835754
9.588311005,-0.227227478,-1.32923584
9.580227814,-0.4117936707,-1.283131714
9.560019836,-0.2650987244,-1.126108246
9.608668671,-0.3115022278,-1.140478363
9.73979599,-0.4938230896,-1.521585846
9.617649994,-0.3706292725,-1.745220795
9.581575012,-0.2624043274,-2.141895905
9.730964355,-0.1950444031,-2.059118042
9.648186493,-0.2050735474,-1.913321228
9.400002594,-0.365539856,-1.391955414
9.409432983,-0.6078858948,-1.399739227
9.674681396,-0.2742297363,-1.422192535
9.839039612,-0.2950364685,-1.852697296
10.0489032,-0.4342469788,-1.520687714
10.01222946,-0.2818638611,-1.739233246
9.999954987,-0.4926255798,-1.914069672
9.568252716,-0.2047741699,-1.756597137
9.727820892,-0.3535647583,-2.116448822
9.500443726,-0.4113446045,-1.988914032
9.771080933,-0.227227478,-1.816772003
9.885443115,-0.1833686829,-1.491199036
9.697434082,-0.2049238586,-1.584754486
9.567354584,-0.2674937439,-1.660047913
9.740245056,-0.4311035156,-1.642384644
9.664352875,-0.4872367859,-1.035097504
9.676178284,-0.4373904419,-1.149309998
9.431437225,-0.3212319946,-1.432521057
9.427994385,-0.3079096985,-2.163151703
9.375453644,-0.3275189209,-2.099384308
9.63561264,-0.3980223083,-1.767823792
9.806706848,-0.2348616028,-1.441801758
9.838590546,-0.380508728,-1.26486969
9.65911377,-0.2022294617,-1.372645569
9.491911469,0.01706451416,-1.442250824
9.817783813,0.152233429,-1.330133972
9.651479645,0.005388793945,-0.7542814636
9.712402954,-0.002544708252,-0.4683760071
9.547745361,-0.04805007935,-0.5599855042
9.815538483,0.05972579956,-0.772842865
9.761800232,0.1574725342,-0.8167016602
9.823022919,-0.1344204712,-0.5631289673
9.612560577,-0.1941462708,-0.2839595032
9.570348358,-0.2183958435,-0.3252735901
9.515861664,-0.2216889954,-0.4261637878
9.715097351,-0.1240919495,-0.4528083801
9.641600189,-0.1315763855,-0.4499642944
9.639803925,-0.1817221069,-0.3894900513
9.601483612,-0.1630110168,-0.3576063538
9.550439758,-0.2062710571,-0.2513273621
9.864786072,-0.2649490356,-0.3234773254
9.835896149,-0.01511856079,-0.1251397705
9.565558319,0.1540296936,0.03712280273
9.510921936,0.3251239014,0.3375480652
9.578880615,0.2194436646,-0.02395019531
9.557325439,0.06750961304,-0.1064286804
9.619595947,0.004640350342,-0.1896556091
9.811945953,-0.1586700439,0.0288899231
9.464668121,-0.1643582153,0.0628692627
9.607022095,-0.129181366,0.005388793945
9.885892181,-0.02739303589,-0.1402583313
9.636660461,-0.1270857239,-0.1228944397
9.882299652,-0.0722996521,-0.193996582
9.988878021,-0.03637435913,-0.1913021851
9.929900665,-0.02784210205,-0.1995350647
9.815538483,0.03487747192,-0.1528321838
9.734556885,-0.07095245361,-0.2709365845
9.895023193,0.0390687561,-0.1547781372
9.781858521,0.1142124939,-0.01167572021
9.666448517,0.0245489502,0.01960922241
9.687854004,0.08831634521,0.01107696533
9.979297943,-0.003293151855,-0.1610650635
9.564660187,0.02634521484,-0.06316864014
9.620643768,0.02829116821,-0.1965412903
9.91418335,0.02290237427,-0.1519340515
9.861193542,-0.02619552612,0.03113525391
9.960586853,-0.06182144165,-0.03382965088
9.793983307,0.04790039063,-0.2791694641
9.595046997,0.01796264648,-0.48559021
9.673783264,0.1426533508,-0.3864962769
9.691895599,0.07903564453,-0.3565585327
9.562115479,0.02933898926,-0.362845459
9.655072174,0.09624984741,-0.4379891968
9.548044739,-0.1113684082,-0.433049469
9.527238007,-0.0477507019,-0.4135899353
9.446855164,0.0462538147,-0.2365081787
9.486372986,-0.02365081787,-0.3137475586
9.795779572,0.1471440125,-0.3725752258
9.629924469,-0.1002914429,-0.3294648743
9.738149414,0.004041595459,-0.397124176
9.712402954,0.05433700562,-0.4836442566
9.89068222,-0.1202000427,-0.3354524231
9.627828827,0.04715194702,-0.240100708
9.883796539,-0.1294807434,-0.3367996216
9.855505371,-0.03966751099,-0.1692979431
9.939780121,-0.1121168518,0.05044509888
9.613009644,0.01901046753,0.297431488
9.637708282,0.05239105225,0.05014572144
9.717192993,-0.001047821045,-0.1308279419
9.927355957,0.04326004028,-0.117355957
9.936636658,-0.1721420288,0.0245489502
9.894723816,-0.1148112488,-0.1874102783
9.863588562,-0.09310638428,-0.3785627747
9.74219101,-0.1070274353,-0.5691165161
9.808353424,-0.008083190918,-0.5242098999
9.949509888,-0.07544311523,-0.6047424316
9.952503662,-0.02155517578,-0.3471281433
9.799970856,-0.01601669312,-0.1480421448
9.71988739,-0.3107537842,-0.3126997375
9.623188477,-0.2869532776,-0.2841091919
9.638157349,-0.3478765869,-0.03532653809
9.670639801,0.04400848389,-0.3613485718
9.525890808,0.06601272583,-1.02387085
9.661059723,-0.4158352661,-0.6824308777
9.583820343,-0.2188449097,-0.3511697388
9.800569611,-0.002993774414,0.009430389404
9.868079224,-0.1757345581,-0.2353106689
9.38174057,-0.04041595459,-0.9756710815
9.808054047,-0.1784289551,-0.8455915833
9.493108978,0.2457888794,-0.9901908875
9.664502563,-0.01766326904,-0.5526507568
9.429790649,-0.144150238,-1.169517975
9.525441742,0.1969903564,-1.933080139
9.608968048,-0.2671943665,-2.540516968
9.190887451,-0.6346801758,-2.494263153
9.397308197,-0.5312452698,-2.528242493
9.262288971,-0.4197271729,-2.318378906
9.58651474,-0.3287164307,-1.968556366
9.463769989,-0.4508624268,-1.841620331
9.522897034,-0.2847079468,-2.066153412
9.308991852,-0.3700305176,-2.181264038
9.583221588,-0.6568341064,-2.299667816
9.392967224,-0.4125421143,-2.105521545
9.33728302,-0.2893482971,-1.827848969
9.622140656,-0.5092410278,-2.116149445
9.248667297,-0.4492158508,-2.268981628
9.366023254,-0.5243595886,-2.52509903
9.540410614,-0.5053491211,-2.276016998
9.370663605,-0.5373825073,-2.133213959
9.216035156,-0.5783972168,-1.946252747
9.475146332,-0.4378395081,-2.424957275
9.489815826,-0.3050656128,-2.742746429
9.202114105,-0.8747808838,-2.773432617
9.216035156,-0.773890686,-2.817740479
9.11499527,-0.9125024414,-2.999312897
9.229806519,-0.7741900635,-2.628533936
9.463021545,-0.8940907288,-2.504142609
9.4437117,-0.7334747314,-2.518961792
9.556277618,-0.8303233337,-2.652184753
9.186696167,-0.8422984314,-2.380499725
9.569450226,-0.8418493652,-2.756218414
9.560618591,-0.8770262146,-2.892584839
9.448651428,-1.025517426,-2.755170593
9.555379486,-0.9479786682,-2.562970276
9.539811859,-0.9351054382,-3.003504181
9.349557495,-0.8797206116,-2.849324799
9.148525543,-0.9205856323,-2.744243317
9.274264069,-0.7481442261,-2.805466003
9.174272003,-1.000968475,-2.779120789
9.17352356,-0.9322613525,-2.701282654
8.518635406,-0.8021818542,-2.507585449
10.52715866,-1.528471527,-2.672841797
8.889414368,-0.8548722839,-2.700234833
9.444460144,-1.213825836,-2.862497406
9.066196747,-0.9448352051,-2.902613983
10.11087433,-1.09991272,-2.474653931
9.245074768,-1.098565521,-3.019371185
9.258397064,-1.3151651,-2.753823395
9.381590881,-0.9080117798,-2.431992645
9.319619751,-1.271755371,-2.44546463
9.672136688,-1.023272095,-2.674937439
9.368418274,-0.8897497559,-2.883304138
9.29282547,-1.109792175,-2.941682739
9.240284729,-1.285077667,-3.192411346
9.386680298,-1.347797241,-3.155138855
9.251212006,-1.559606781,-3.251089325
8.920998688,-1.433119812,-2.999312897
9.389225006,-1.580114136,-2.859503632
8.880582733,-1.531016235,-2.464325409
9.281000061,-1.446591797,-2.571203156
9.363478546,-1.423240356,-2.686164093
9.307944031,-1.499731293,-2.427052917
9.304052124,-1.641935577,-2.434537354
9.436676331,-1.730401611,-2.463576965
9.63561264,-1.788929901,-2.520907745
9.539811859,-1.861079865,-2.453248444
9.469607849,-1.997595978,-2.471660156
9.366622009,-1.817969513,-2.596350861
9.251960449,-1.964065704,-2.599194946
9.219477997,-2.00433197,-2.521656189
9.242679749,-1.967957611,-2.527494049
9.223968658,-2.120640106,-2.584226074
9.234446869,-1.950593719,-2.624791718
9.257648621,-1.950593719,-2.551144867
9.367969208,-1.996697845,-2.346670074
9.41916275,-1.932182007,-2.374362488
9.430090027,-1.906285858,-2.459685059
9.417665863,-1.958377533,-2.333647156
9.401948547,-1.939217377,-2.235451355
9.546547852,-1.985022125,-2.236648865
9.754764862,-1.977537689,-2.270478516
9.738448792,-1.985321503,-2.234702911
9.643097076,-1.988764343,-2.234253845
9.6812677,-2.079326019,-2.213447113
9.608668671,-2.020797729,-2.342029724
9.519304504,-2.022743683,-2.384840698
9.347910919,-1.890119476,-2.373614044
9.38997345,-2.086511078,-2.404150543
9.219028931,-2.032323761,-2.485730896
9.288783875,-2.032623138,-2.251168671
9.457932129,-2.009870453,-2.338137817
9.418713684,-2.050885162,-2.317480774
9.419911194,-2.027533722,-2.304158478
9.486672363,-2.096989288,-2.26883194
9.370962982,-1.921554108,-2.415826263
9.408983917,-1.77620636,-2.766546936
9.508227539,-1.672472076,-2.559228058
9.488318939,-1.539698181,-2.476150818
9.505084076,-1.522184601,-2.456840973
9.447753296,-1.560355225,-2.577789459
9.554780731,-1.609752502,-2.4126828
9.596244507,-1.549278259,-2.161355438
9.661658478,-1.408121796,-2.305954742
9.654623108,-1.107846222,-2.324366455
9.813293152,-1.006956024,-2.344424744
9.856553192,-1.178648987,-2.314936066
9.868079224,-1.172661438,-2.491419067
9.649084625,-1.133892059,-2.513572998
9.569450226,-0.9508227539,-2.450404358
9.622889099,-1.09048233,-2.456391907
9.569300537,-1.024768982,-2.480192413
9.473948822,-1.040037231,-2.477647705
9.479636993,-1.316661987,-2.260748749
9.491013336,-1.174457703,-2.149530029
9.48008606,-1.261277161,-2.068997498
9.421707458,-1.37369339,-2.177372131
9.531728668,-1.385967865,-2.2056633
9.71285202,-1.347198486,-2.238295441
9.681716766,-1.196761322,-2.188598785
9.627230072,-1.273701324,-2.220482483
9.592651978,-1.281335449,-2.326911163
9.568851471,-1.338067474,-2.222278748
9.624535675,-1.338217163,-1.986069946
9.508227539,-1.205443268,-1.822609863
9.711055756,-1.363514557,-1.902992706
9.604926453,-1.140478363,-1.870360565
9.734556885,-1.172062683,-1.874551849
9.436975708,-1.269809418,-1.830543365
9.556726685,-1.078357544,-1.810934143
9.577982483,-0.9434880066,-1.54688324
9.612710266,-1.153501282,-1.453477478
9.780810699,-1.335971832,-1.605261841
9.790390778,-1.162482605,-1.788031769
9.534722443,-1.187929688,-1.529519348
9.623787231,-1.222507782,-1.466350708
9.654922485,-1.076411591,-1.593586121
9.729018402,-1.19930603,-1.625918884
9.505533142,-1.028062134,-1.419049072
9.658664703,-1.134341125,-1.669627991
9.861043854,-1.130898285,-1.555265808
9.538614349,-1.094523926,-1.105900269
9.595496063,-1.30109436,-0.9951306152
9.873468018,-1.188678131,-1.427431641
9.86613327,-1.182241516,-1.190474396
9.491163025,-1.190923462,-0.995280304
9.685009918,-0.9056167603,-1.406026154
9.830657043,-0.8382568359,-1.518292694
9.852511597,-0.6486012268,-1.393901367
9.48008606,-0.8384065247,-1.238973541
9.941426697,-0.9526190186,-1.264270935
9.811047821,-0.8095166016,-1.357976074
10.24754013,-0.8870553589,-1.562301178
9.558223572,-0.7478448486,-1.204844513
9.941875763,-0.7872129822,-1.066232758
9.827363892,-0.7454498291,-1.405128021
9.627529449,-0.9181906128,-1.561852112
9.567653961,-0.9443861389,-1.288520508
9.842482452,-0.8466394043,-1.278641052
9.729168091,-0.9202862549,-1.220861206
9.60762085,-0.8387059021,-1.231788483
9.817484436,-0.8348139954,-1.146166534
9.744885406,-0.839304657,-1.120120697
9.703870697,-0.8991801453,-1.228345642
9.707463226,-0.7402107239,-1.18179245
9.830806732,-0.8241860962,-1.052162018
9.814191284,-0.9160949707,-1.139430542
9.616302795,-0.7476951599,-1.165027313
9.822124786,-0.8283773804,-1.200353851
9.602531433,-0.8650511169,-1.052461395
9.64848587,-0.863404541,-1.030157776
9.607171783,-0.9494755554,-0.7731422424
9.624685364,-0.7077282715,-0.6719526672
9.715696106,-0.7455995178,-0.3861968994
9.821975098,-0.7223977661,-0.5671705627
9.729168091,-0.7370672607,-0.6894662476
9.859846344,-0.7714956665,-0.5698649597
9.884544983,-0.6767427063,-0.5333409119
9.619895325,-0.8078700256,-0.8696914673
10.18646713,-0.7518864441,-1.060544586
10.10024643,-0.7238946533,-0.9262738037
9.634415131,-0.7475454712,-0.6203100586
9.75147171,-0.9066645813,-0.4990621948
9.691446533,-0.7696994019,-0.1933978271
9.57483902,-0.7153623962,0.1203497314
9.739197235,-0.6682104492,-0.3288661194
9.737550659,-0.749790802,-0.3817062378
10.02480331,-0.5713618469,-0.1251397705
9.754764862,-0.5507048035,-0.04011657715
9.775870972,-0.6991960144,-0.1805245972
9.902208252,-0.8358618164,-0.3776646423
9.814939728,-0.6936575317,-0.349972229
9.58187439,-0.7041357422,-0.1802252197
9.541159058,-0.5828878784,-0.3326083374
9.756860504,-0.7047344971,-0.4474195862
9.408534851,-0.6905140686,-0.2423460388
9.866732025,-0.6767427063,-0.4349954224
9.63800766,-0.8075706482,-0.3849993896
9.710906067,-0.5840853882,-0.242795105
9.785301361,-0.902024231,0.06032455444
9.750872955,-0.400866394,-0.4182302856
9.79473175,-0.7649093628,-0.4358935547
9.810299377,-0.3149450684,-0.3769161987
10.00998413,-0.6743476868,0.3932322693
9.841434631,-0.07409591675,0.5080435181
10.06387207,-0.2411485291,0.9524693298
9.888586578,0.1411564636,1.374591522
9.635462952,-0.2541714478,1.651066589
9.531578979,-0.1920506287,1.379830627
9.535321198,-0.1148112488,1.745220795
9.488468628,-0.3977229309,1.430425415
9.511969757,-0.0002993774414,1.651815033
9.638157349,-0.2874023438,1.401535492
9.517059174,-0.2212399292,1.561702423
9.66959198,-0.2086660767,1.754501495
9.558223572,-0.2457888794,1.687440948
9.672436066,-0.214354248,1.737436981
9.420959015,-0.162412262,1.684596863
9.623637543,-0.2278262329,1.607207794
9.630672913,-0.3026705933,1.668430481
9.746082916,-0.2029779053,1.596280518
9.421258392,-0.2691403198,1.69896698
9.440119171,-0.3049159241,1.728755035
9.622440033,-0.1303788757,1.554367676
9.767488403,-0.2812651062,1.504820709
9.73276062,-0.2773731995,1.383273468
9.823322296,-0.1706451416,1.279539185
9.8790065,-0.1035845947,1.486109619
9.38757843,-0.3486250305,1.727707214
9.088650055,-0.2103126526,1.559457092
9.357940063,-0.3016227722,1.442101135
9.529932404,-0.2251318359,1.538800049
9.720785522,-0.2607577515,1.241069183
9.711055756,-0.01362167358,0.6065386963
9.606123962,-0.2103126526,1.030606842
9.91178833,-0.3147953796,1.272054749
9.522897034,-0.2894979858,1.552870789
9.701924744,-0.3420387268,1.017583923
9.947563934,-0.373024292,1.112636261
9.917177124,-0.1848655701,1.254541168
9.99022522,-0.3064128113,1.367705841
9.913434906,-0.2014810181,1.06593338
9.622440033,-0.232616272,1.347348175
9.890233154,-0.1499880981,1.41815094
9.587562561,-0.06167175293,1.16188385
9.758956146,-0.2209405518,1.219963074
9.647438049,-0.06376739502,1.459015961
9.544601898,-0.1829196167,1.505269775
9.50223999,-0.3044668579,1.319057007
9.465566254,-0.12753479,1.421444092
9.552086334,-0.1908531189,1.653162231
9.489217072,-0.2489323425,1.399888916
9.64384552,-0.2360591125,1.119971008
9.552984467,-0.2528242493,1.237776031
9.752369843,-0.3570075989,1.238374786
9.500443726,-0.3186872864,1.287322998
9.508975983,-0.2408491516,1.072369995
10.02225861,-0.1240919495,1.259780273
10.22254211,-0.1287322998,0.8536747742
9.46601532,-0.3365002441,1.444645844
9.724976807,-0.2154020691,1.282233582
10.42926224,-0.3588038635,0.8991801453
10.16012192,-0.09116043091,0.3649411011
9.760602722,-0.2008822632,1.165476379
9.748927002,-0.1492396545,1.568438416
10.162966,-0.2128573608,1.371448059
9.410929871,-0.1140628052,1.123563538
9.606872406,-0.2968327332,1.516197052
9.635912018,-0.1989363098,1.705553284
9.412426758,-0.1228944397,1.615740051
9.566905518,-0.3180885315,1.391506348
9.468260651,-0.1965412903,1.409019928
9.675280151,-0.2915936279,1.582359467
9.57947937,-0.1896556091,1.73519165
9.818083191,-0.2356100464,1.611698456
9.572444,-0.1419049072,1.701960754
9.520052948,-0.1182540894,1.754202118
9.501940613,-0.08696914673,1.855990448
9.498647461,-0.2580633545,1.94116333
9.485325165,-0.2088157654,1.863474884
9.594448242,-0.2697390747,1.682950287
9.682764587,-0.2498304749,1.634301453
9.441017303,-0.240100708,1.888622589
9.588311005,-0.2592608643,1.762884064
9.835297394,-0.3357518005,1.597478027
9.657317505,-0.212258606,1.689835968
9.609417114,-0.1245410156,2.124382324
9.489815826,-0.2118095398,1.830243988
9.816286926,-0.2776725769,1.860630798
9.759255524,-0.1603166199,1.90718399
9.74219101,-0.08936416626,1.932032318
9.381291504,-0.1947450256,1.905088348
9.226213989,-0.1654060364,1.987566833
9.405541077,-0.2344125366,1.945953369
9.394015045,-0.2565664673,1.867366791
9.485774231,-0.1541793823,1.870061188
9.508826294,-0.1960922241,2.076481934
9.532926178,-0.1845661926,2.01256485
9.536069641,-0.1318757629,2.25012085
9.636211395,-0.2670446777,1.796264648
9.48472641,0.08936416626,2.357148285
9.57364151,0.01347198486,2.059417419
9.660011902,-0.06930587769,2.117496643
9.798174591,0.01257385254,1.043330383
10.03213806,-0.1941462708,1.852547607
9.504934387,-0.05029541016,-0.2547702026
9.598789215,-0.06212081909,0.5602848816
9.615554352,0.1851649475,1.184935913
9.743987274,0.05298980713,0.3835025024
9.298813019,0.1835183716,-0.5231620789
9.7409935,-0.1983375549,-0.4029620361
9.719288635,-0.3999682617,-0.2414479065
9.606123962,-0.5577401733,-1.48835495
10.08213409,-0.6171665955,-2.013612671
9.206904144,-0.17902771,-1.821562042
9.794582062,-0.4300556946,-1.468596039
9.737700348,-0.4281097412,-1.503024445
9.714348907,-0.2558180237,-1.397493896
9.747729492,-0.5758525085,-0.9536668396
9.637558594,-0.3752696228,-1.313518524
9.871671753,-0.5143304443,-1.42279129
9.946665802,-0.5849835205,-1.355730743
9.77138031,-0.6517446899,-1.024319916
9.738299103,-0.5783972168,-1.020877075
9.668244781,-0.623303833,-1.310973816
9.607471161,-0.4312532043,-1.344953156
9.884544983,-0.6150709534,-1.238075409
9.836045837,-0.6828799438,-1.124012604
9.781559143,-0.5915698242,-1.382225647
9.805060272,-0.4763095093,-1.199006653
9.748627625,-0.3854484558,-1.068777466
9.642348633,-0.5801934814,-1.208586731
9.790690155,-0.4261637878,-1.135987701
9.871222687,-0.4529580688,-1.11158844
10.10533585,-0.7532336426,-1.058299255
9.882898407,-0.6239025879,-0.6792874146
9.88259903,-0.4379891968,-0.8487350464
9.697733459,-0.4162843323,-0.9440867615
9.516460419,-0.5385800171,-0.9999206543
9.714348907,-0.4938230896,-0.9268725586
9.636211395,-0.5876779175,-1.065184937
9.740095367,-0.6840774536,-0.9568103027
9.583071899,-0.5417234802,-1.046773224
9.607920227,-0.6348298645,-1.194366302
9.62049408,-0.4258644104,-1.195713501
9.785900116,-0.3797602844,-1.129700775
9.698332214,-0.6571334839,-1.309476929
9.53502182,-0.6634204102,-1.466650085
9.472152557,-0.4686753845,-1.198407898
9.756411438,-0.4514611816,-0.9023236084
9.824819183,-0.6596781921,-1.270557861
9.520352325,-0.6087840271,-1.241368561
9.576186218,-0.6728507996,-1.112636261
9.633067932,-0.8810678101,-0.8187973022
9.630373535,-0.5254074097,-0.8657995605
9.795330505,-0.4915777588,-1.016985168
10.04770569,-0.6771917725,-1.360071716
9.647288361,-0.775537262,-1.131197662
9.774224396,-0.6635700989,-1.056353302
9.922266541,-0.653840332,-1.358125763
9.936636658,-0.4980143738,-1.629212036
9.796677704,-0.7602690125,-1.323996735
9.624685364,-0.6824308777,-1.332978058
9.965077515,-0.7593708801,-1.220112762
10.21984772,-0.7957452393,-1.41231308
9.966424713,-0.8175997925,-1.49419281
9.834998016,-0.5140310669,-1.582509155
9.790390778,-0.6545887756,-1.362167358
9.709259491,-0.649050293,-1.199455719
10.01851639,-0.6837780762,-1.1771521
9.673184509,-0.7538323975,-1.117875366
9.705068207,-0.6466552734,-1.205742645
9.656569061,-0.9270222473,-1.252894592
9.729168091,-0.7988887024,-1.412612457
9.671238556,-0.9702822876,-1.122964783
9.834099884,-0.9108558655,-1.279688873
9.665400696,-1.06249054,-1.048270111
9.908644867,-1.033450928,-1.220861206
9.674382019,-1.027762756,-1.224453735
9.943073273,-1.002465363,-0.9601034546
9.762848053,-0.8361611938,-0.9874964905
9.634415131,-0.6755451965,-1.169517975
9.816137238,-0.767454071,-1.286724243
9.796677704,-0.8354127502,-1.241368561
9.885592804,-0.8681945801,-1.041534119
9.784552917,-0.8526269531,-1.078058167
9.665849762,-0.7521858215,-1.276695099
9.773625641,-0.8867559814,-1.542841644
10.02061203,-0.9162446594,-1.418001251
9.766141205,-0.9744735718,-1.152752838
9.671687622,-0.90681427,-1.217568054
9.565857697,-1.046324158,-1.356329498
9.60522583,-0.8482859802,-1.108594666
9.480984192,-0.7084767151,-1.082698517
9.81464035,-0.9987231445,-1.393152924
9.566157074,-1.013542328,-1.268312531
9.577383728,-0.9310638428,-1.115330658
9.336684265,-0.8322692871,-1.313069458
9.704319763,-0.7912545776,-1.746118927
9.673334198,-0.7241940308,-1.632954254
9.681118011,-0.8348139954,-1.636097717
9.589209137,-0.9578581238,-1.638941803
9.466165009,-0.8382568359,-1.639839935
9.463769989,-0.9264234924,-1.534159698
9.665101318,-0.9039701843,-1.717229004
9.56780365,-0.8758287048,-1.500479736
9.568103027,-0.7051835632,-1.416055298
9.545350342,-0.8288264465,-1.584604797
9.343270569,-0.6590794373,-1.613345032
9.447753296,-0.8069718933,-1.617536316
9.741292877,-0.8593629456,-1.63579834
9.522897034,-0.8710386658,-1.595083008
9.632319489,-1.061442719,-1.699116669
9.620344391,-0.8316705322,-1.81243103
9.471254425,-0.8120613098,-1.700912933
9.56900116,-0.8131091309,-1.686842194
9.358838196,-0.6658154297,-1.459914093
9.541458435,-0.8716374207,-1.506317596
9.643995209,-0.8972341919,-1.636247406
9.485025787,-0.819994812,-1.495839386
9.496551819,-0.8330177307,-1.539997559
9.597442017,-0.7548802185,-1.447489929
9.485774231,-0.5554948425,-1.507814484
9.48472641,-0.6773414612,-1.624421997
9.551188202,-0.6339317322,-1.827100525
9.612111511,-0.7652087402,-1.695374451
9.539512482,-0.8187973022,-1.588646393
9.672735443,-0.9065148926,-1.770817566
9.497300262,-0.7210505676,-1.573078766
9.749076691,-0.7538323975,-1.405128021
9.609117737,-0.9412426758,-1.558259583
9.644893341,-0.7319778442,-1.648222504
9.411977692,-0.6596781921,-1.475781097
9.635163574,-0.8514294434,-1.554517365
9.631571045,-0.8149053955,-1.506467285
9.725126495,-0.7264393616,-1.438957672
9.647587738,-0.8108638,-1.377884674
9.695488129,-0.7243437195,-1.368454285
9.576335907,-0.7514373779,-1.211879883
9.532926178,-0.5111869812,-1.224004669
9.873318329,-0.8916957092,-1.41575592
9.309590607,-0.7891589355,-1.154249725
9.49056427,-0.7343728638,-1.03898941
9.552086334,-0.7816744995,-0.9613009644
9.584718475,-0.7018904114,-1.105451202
9.46601532,-0.7081773376,-1.171463928
9.621691589,-0.6165678406,-1.093176727
9.716294861,-0.6325845337,-0.896635437
9.610015869,-0.5754034424,-0.7988887024
9.619745636,-0.6797364807,-0.9512718201
9.581724701,-0.4373904419,-1.025816803
9.59355011,-0.4948709106,-0.8018824768
9.683513031,-0.4905299377,-0.7325765991
9.745334473,-0.6905140686,-0.8342152405
9.601333923,-0.7388635254,-0.890198822
9.66839447,-0.7860154724,-0.8731343079
9.517657928,-0.595461731,-1.20050354
9.500743103,-0.8411009216,-1.145118713
9.890083466,-0.7435038757,-1.045875092
9.539362793,-0.6544390869,-1.16427887
9.545500031,-0.7394622803,-1.104403381
9.583071899,-0.7319778442,-1.001866608
10.03468277,-0.8349636841,-1.066232758
9.725276184,-0.6613247681,-1.198856964
9.561217346,-0.7348219299,-0.7405101013
9.445507965,-0.4098477173,-0.7387138367
9.667496338,-0.7212002563,-0.4556524658
9.558672638,-0.7029382324,-0.6747967529
9.516161041,-0.7900570679,-0.6450086975
9.853110352,-1.116977234,-0.4650828552
9.668993225,-0.6318360901,-0.7126679993
9.696835327,-0.5222639465,-0.983454895
9.81119751,-0.7776329041,-1.204694824
9.878856812,-0.560584259,-1.180295563
9.642198944,-0.6161187744,-0.9334588623
9.602531433,-0.7144642639,-1.106349335
9.860445099,-0.5066963196,-1.103505249
9.599088593,-0.5328918457,-0.8957373047
9.633816376,-0.6688092041,-0.8286767578
9.635462952,-0.8384065247,-1.000669098
9.619595947,-0.7042854309,-0.8812174988
9.849966888,-0.5882766724,-0.9026229858
9.68366272,-0.7822732544,-1.069974976
9.671238556,-0.5867797852,-1.174906769
9.724378052,-0.7761360168,-0.8861572266
9.679770813,-0.6448590088,-0.9957293701
9.806407471,-0.6366261292,-0.8255332947
9.965975647,-0.7048841858,-0.7258406067
9.850865021,-0.6743476868,-0.6192622375
9.731413422,-0.5981561279,-0.3731739807
9.664652252,-0.6180647278,-0.3686833191
9.803264008,-0.5843847656,-0.3162922668
9.961035919,-0.5918692017,-0.545615387
9.904603271,-0.5688171387,-0.4092489624
9.96911911,-0.7981402588,-0.4728666687
10.00669098,-0.6511459351,-0.6017486572
9.916578369,-0.6319857788,-0.2686912537
9.872869263,-0.5390290833,-0.2055226135
9.830207977,-0.6018983459,-0.02859054565
9.831555176,-0.5764512634,0.1999841309
9.784552917,-0.4466711426,0.1456471252
9.803563385,-0.5275030518,0.03173400879
9.953252106,-0.5248086548,0.09220825195
9.980495453,-0.7488926697,-0.0722996521
10.00324814,-0.8907975769,-0.2543211365
10.0382753,-0.5631289673,-0.1465452576
9.940977631,-0.5128335571,-0.2402503967
9.966125336,-0.4128414917,-0.2317181396
10.1869162,-0.3710783386,-0.3799099731
9.580976257,-0.5126838684,-0.265847168
9.928703156,-0.5944139099,0.09909393311
9.806407471,-0.5089416504,-0.02215393066
9.571396179,-0.4628375244,0.1782792664
9.569150848,-0.6010002136,0.2501298523
9.52798645,-0.433049469,0.1589694214
9.743538208,-0.5435197449,0.3568579102
10.07854156,-0.5813909912,0.2644999695
10.07464966,-0.7120692444,0.07574249268
9.974657593,-0.5474116516,0.1073268127
10.01791763,-0.5037025452,0.06750961304
9.795330505,-0.4352947998,0.0983454895
9.877210236,-0.4010160828,0.1911524963
9.795180817,-0.6014492798,0.310304718
9.520352325,-0.4935237122,0.1695973206
9.585616608,-0.5313949585,-0.05224136353
9.471104736,-0.6968009949,0.04041595459
9.493558044,-0.5155279541,0.2305206299
9.725126495,-0.6738986206,-0.1460961914
9.554631042,-0.4553530884,-0.2685415649
9.999356232,-0.6580316162,-0.2296224976
9.794881439,-0.6084846497,-0.135617981
9.787247314,-0.5421725464,-0.06256988525
9.732461243,-0.6042933655,-0.05658233643
9.610315247,-0.5227130127,-0.2366578674
9.841434631,-0.5604345703,-0.01002914429
9.631571045,-0.5614823914,0.1199006653
9.744136963,-0.5879772949,-0.02499801636
9.801617432,-0.7054829407,-0.2680924988
9.798174591,-0.5727090454,-0.06197113037
9.82047821,-0.7002438354,-0.05598358154
9.767488403,-0.5230123901,-0.2853067017
9.703122253,-0.5366340637,-0.1508862305
9.654174042,-0.5887257385,-0.1749861145
9.817185059,-0.5310955811,-0.2571652222
9.568103027,-0.5182223511,-0.204175415
9.763895874,-0.6899153137,-0.03562591553
9.768087158,-0.6480024719,-0.1788780212
9.785301361,-0.6843768311,-0.1514849854
9.849368134,-0.807121582,-0.2451901245
9.817933502,-0.6370751953,-0.5536985779
9.707463226,-0.6686595154,-0.5020559692
9.76434494,-0.7228468323,-0.4170327759
9.751771088,-0.7276368713,-0.3603007507
9.697134705,-0.5099894714,-0.445922699
9.501192169,-0.5411247253,-0.190254364
9.538165283,-0.7575746155,-0.09550140381
9.757908325,-0.769100647,-0.3848497009
9.648635559,-0.7048841858,-0.5668711853
9.741891632,-0.8334667969,-0.3191363525
9.800719299,-0.8828640747,-0.2276765442
9.724677429,-0.7295828247,-0.4149371338
9.710756378,-0.6918612671,-0.7909552002
9.599537659,-0.7078779602,-0.5983058167
9.804611206,-0.6761439514,-0.5682183838
9.587263184,-0.6852749634,-0.6273454285
9.640252991,-0.8934919739,-0.4999603271
9.598789215,-0.8756790161,-0.6670129395
9.45897995,-0.7679031372,-0.8548722839
9.677076416,-0.9367520142,-0.8879534912
9.779014435,-0.7836204529,-0.9957293701
9.648336182,-0.8831634521,-1.141376495
9.791887665,-1.072519684,-1.198108521
9.77138031,-0.9928852844,-1.186881866
9.640851746,-0.7379653931,-1.179547119
9.612560577,-0.858614502,-1.04258194
9.624385986,-0.8243357849,-1.035396881
9.624984741,-0.8454418945,-1.103654938
9.668843536,-0.94543396,-1.371897125
9.444759521,-0.8602610779,-1.545985107
9.515562286,-0.8686436462,-1.828747101
9.509874115,-1.059347076,-1.723366241
9.609417114,-1.069825287,-1.723964996
9.629625092,-0.8975335693,-1.571581879
9.709858246,-1.029259644,-1.581161957
9.557774506,-1.057999878,-1.564995575
9.591903534,-1.082099762,-1.575174408
9.244925079,-1.09407486,-1.455124054
9.615254974,-1.300495605,-1.312620392
9.695188751,-1.363813934,-1.491797791
9.513017578,-1.400787048,-1.631756744
9.570348358,-1.297501831,-1.731150055
9.77138031,-1.456171875,-1.74926239
9.814939728,-1.199605408,-1.811832275
9.627828827,-1.321601715,-1.730401611
9.613758087,-1.531764679,-1.755249939
9.584568787,-1.320254517,-1.85808609
9.716743927,-1.389261017,-1.926793213
9.552236023,-1.486858063,-1.974843292
9.342522125,-1.430724792,-1.9681073
9.293723602,-1.648372192,-1.960024109
9.545500031,-1.565444641,-2.049088898
9.463320923,-1.595083008,-2.194286957
9.438023529,-1.54448822,-2.124681702
9.352251892,-1.643133087,-2.074236603
9.295968933,-1.581461334,-2.217638397
9.354946289,-1.461710358,-2.300865326
9.424252167,-1.519490204,-2.479144592
9.687704315,-1.76093811,-2.518363037
9.331594849,-1.514400787,-2.424059143
9.317973175,-1.731000366,-2.4724086
9.226064301,-1.651066589,-2.543510742
9.715097351,-1.681752777,-2.495161285
9.255852356,-1.581161957,-2.472857666
9.323811035,-1.808539124,-2.530038757
9.510023804,-1.697619781,-2.734962616
9.317224731,-1.54329071,-2.689906311
9.319020996,-1.785187683,-2.474204865
9.308393097,-1.452429657,-2.621947632
9.769733734,-1.3151651,-2.694396973
9.554631042,-1.34210907,-2.865191803
9.304950256,-1.444795532,-2.696941681
9.32680481,-1.381177826,-2.655777283
9.275461578,-1.327140198,-2.723735962
9.357790375,-1.284179535,-2.969375153
9.362430725,-1.32220047,-2.948718109
9.253756714,-1.234183502,-2.589614868
9.158854065,-1.354682922,-2.561772766
9.27995224,-1.275048523,-2.567610626
9.153764648,-1.088237,-2.3436763
9.161997528,-1.103954315,-2.445764008
9.291029205,-1.16068634,-2.571652222
9.359287262,-1.015188904,-2.561772766
9.250613251,-1.09287735,-2.387984161
9.229507141,-1.125808868,-2.60697876
9.331894226,-1.03898941,-2.915636902
9.438771973,-1.138233032,-2.750230865
9.181457062,-1.065334625,-2.549348602
9.294172668,-1.078058167,-2.518213348
9.421108704,-1.004860382,-2.857857056
9.219328308,-0.995280304,-2.4525
9.275461578,-1.067729645,-2.435285797
9.461524658,-1.004111938,-2.683170319
9.281449127,-1.030906219,-2.72164032
9.235943756,-1.086889801,-2.571352844
9.246272278,-1.072669373,-2.789598999
9.426497498,-1.148561554,-2.755919037
9.365274811,-1.017733612,-2.470762024
9.508676605,-1.115330658,-2.638114014
9.459429016,-1.075513458,-2.762056274
9.645342407,-1.097817078,-2.624192963
9.413624268,-1.048569489,-2.449356537
9.557475128,-1.077908478,-2.61745697
9.521998901,-0.8027806091,-2.76026001
9.551337891,-1.075064392,-2.657573547
9.471104736,-1.155896301,-2.512974243
9.274862823,-1.07057373,-2.641407166
9.243428192,-1.202150116,-2.600242767
8.938512268,-0.9590556335,-2.614762573
9.383387146,-1.276994476,-2.734663239
9.297615509,-0.9039701843,-2.832859039
9.604327698,-1.070424042,-2.89363266
8.936566315,-1.146465912,-2.803370361
9.236991577,-1.069226532,-2.560575256
9.528585205,-0.9598040771,-2.704725494
9.164841614,-1.180295563,-2.42555603
9.380842438,-1.043629761,-2.708018646
9.624236298,-1.243913269,-2.7988797
9.643995209,-1.216969299,-2.767145691
9.308243408,-1.137484589,-2.393672333
9.556576996,-1.007255402,-2.772684174
9.520052948,-1.223256226,-2.816542969
9.389225006,-0.8668473816,-2.608475647
9.366023254,-1.111289063,-2.146386566
9.560468903,-1.066232758,-2.221679993
9.31976944,-1.222208405,-2.539768524
9.10676239,-1.004561005,-2.638862457
9.379495239,-0.9650431824,-2.36702774
9.573042755,-0.9324110413,-2.138752441
9.266180878,-0.6379733276,-2.362537079
9.381291504,-0.8104147339,-2.114802246
9.325457611,-0.6253994751,-2.433190155
9.104517059,-0.8949888611,-2.799628143
9.436227264,-0.7568261719,-2.29682373
9.590256958,-0.8650511169,-2.015858002
9.374854889,-0.7069798279,-2.114502869
9.287137299,-0.8765771484,-2.204166412
9.275910645,-1.176703033,-2.308050385
9.359886017,-0.9702822876,-2.329904938
9.441166992,-1.077010345,-2.070793762
9.469308472,-1.161135406,-2.270478516
9.379046173,-1.404678955,-2.398462372
9.449998627,-1.433119812,-2.374661865
9.319020996,-1.53520752,-2.204016724
9.538464661,-1.54808075,-2.194736023
9.501192169,-1.681752777,-2.042053528
9.244326324,-1.553319855,-1.884730682
9.350305939,-1.476230164,-2.094145203
9.512119446,-1.666035461,-2.052681427
9.568402405,-1.651964722,-2.068398743
9.308991852,-1.580563202,-1.953886871
9.54789505,-1.765279083,-2.113455048
9.470206604,-1.676064606,-2.01376236
9.413773956,-1.479523315,-1.951192474
9.445807343,-1.627116394,-2.020348663
9.630074158,-1.757794647,-1.82066391
9.612710266,-1.638043671,-1.422042847
9.212742004,-1.409319305,-1.722168732
9.493408356,-1.404229889,-2.066153412
9.134454803,-1.29884903,-2.035167847
9.717192993,-1.49539032,-2.066752167
9.536818085,-1.528321838,-2.074086914
10.19978943,-1.822609863,-1.942809906
9.843530273,-1.986369324,-2.021546173
9.652826843,-1.949695587,-1.840422821
9.7011763,-1.702559509,-1.804647217
9.743538208,-1.665586395,-1.284029846
10.01297791,-1.570983124,-1.376387787
9.386530609,-1.534309387,-1.710043945
9.599687347,-1.354533234,-1.837279358
9.6520784,-1.604363708,-1.451232147
9.510921936,-1.486259308,-1.242715759
9.417067108,-1.567689972,-1.409468994
9.509874115,-1.623823242,-1.61469223
9.364676056,-1.48715744,-1.401236115
9.479487305,-1.690434723,-1.448238373
9.393565979,-1.735341339,-1.637893982
9.597591705,-1.786385193,-1.865869904
9.715995483,-1.99145874,-1.726809082
9.65791626,-2.015408936,-1.627415771
9.447603607,-2.12722641,-1.576970673
9.392069092,-2.330354004,-1.5129039
9.454788666,-2.509381714,-1.523082733
9.432485046,-2.403551788,-1.670526123
9.358838196,-2.473905487,-1.809586945
9.497449951,-2.561922455,-1.687890015
9.67423233,-2.477797394,-1.412163391
9.424401855,-2.583477631,-1.470242615
9.284442902,-2.521356812,-1.578916626
9.403894501,-2.350561981,-1.689237213
9.345964966,-2.495161285,-1.545536041
9.29866333,-2.502196655,-1.695524139
9.439221039,-2.48872467,-1.699116669
9.49520462,-2.36702774,-1.844913483
9.480684814,-2.45130249,-1.754052429
9.236392822,-2.313588867,-1.761686554
9.349407806,-2.448009338,-1.580712891
9.443112946,-2.480042725,-1.695973206
9.530680847,-2.578388214,-1.719923401
9.492659912,-2.342329102,-1.63460083
9.44146637,-2.358046417,-1.520538025
9.44146637,-2.216590576,-1.650018768
9.599537659,-2.415676575,-1.816772003
9.716594238,-2.435136108,-1.839674377
9.442214813,-2.52973938,-1.561253357
9.380842438,-2.523751831,-1.480571136
9.502689056,-2.457739105,-1.616338806
9.516759796,-2.513722687,-1.498084717
9.521400146,-2.43842926,-1.500479736
9.391170959,-2.341880035,-1.480421448
9.553134155,-2.169139252,-1.537303162
9.589957581,-1.942510529,-1.617835693
9.712253265,-2.133513336,-1.534758453
9.484127655,-2.221829681,-1.504970398
9.498497772,-2.207160187,-1.710343323
9.591454468,-2.124232635,-1.677711182
9.698032837,-2.129022675,-1.555265808
9.639504547,-2.313588867,-1.513802032
9.718989258,-2.190245361,-1.692979431
9.523944855,-2.216889954,-1.753603363
9.368118896,-2.136058044,-1.503174133
9.370364227,-2.102228394,-1.544338531
9.447453918,-2.158960419,-1.543141022
9.580527191,-2.03247345,-1.575922852
9.494755554,-1.92125473,-1.441951447
9.139394531,-1.841620331,-1.29181366
9.199120331,-2.092798004,-1.691632233
9.439969482,-2.243684235,-1.702559509
9.530980225,-1.950743408,-1.846859436
9.776769104,-2.215393066,-1.754950562
9.67423233,-2.294279022,-1.746867371
9.721683655,-2.551743622,-1.733844452
9.195228424,-2.552192688,-1.659898224
9.424850922,-2.461181946,-1.643432465
9.35015625,-2.272424469,-1.667682037
9.454189911,-2.404150543,-1.447789307
9.289532318,-2.731669464,-1.795665894
9.45194458,-2.579885101,-1.870809631
9.555379486,-2.916684723,-1.841320953
9.136550446,-2.747237091,-1.533111877
9.554780731,-2.658920746,-1.904639282
9.679920502,-3.172353058,-1.327589264
9.360933838,-2.827470245,-1.577719116
9.34312088,-2.844085693,-1.272503815
9.683213654,-2.844983826,-1.723066864
9.344617767,-2.563569031,-1.713486786
9.92002121,-2.593955841,-1.589843903
9.347611542,-2.480491791,-1.887425079
9.424701233,-2.429597626,-1.747316437
9.646539917,-2.41971817,-1.408421173
9.350904694,-2.216590576,-1.601669312
9.336534576,-2.377356262,-1.711241455
9.395362244,-2.319426727,-1.692979431
9.501341858,-2.363884277,-1.749412079
9.657317505,-2.250420227,-1.714085541
9.44850174,-2.20207077,-1.724114685
9.457033997,-2.413431244,-1.626068573
9.352401581,-2.375410309,-1.660946045
9.451046448,-2.112257538,-1.691632233
9.424850922,-1.452729034,-2.039808197
9.559121704,-1.433419189,-1.788929901
9.538015594,-1.394200745,-1.585053864
9.658365326,-1.525028687,-1.572030945
9.646090851,-1.458267517,-1.84521286
9.564211121,-1.357826385,-1.750160522
9.577832794,-1.389859772,-1.676663361
9.36886734,-1.453178101,-1.601070557
9.430090027,-1.454674988,-1.593735809
9.493408356,-1.423689423,-1.708846436
9.535770264,-1.474433899,-1.75390274
9.617051239,-1.53041748,-1.810934143
9.600136414,-1.531016235,-1.662442932
9.618697815,-1.465302887,-1.735341339
9.531878357,-1.504820709,-1.646426239
9.554032288,-1.536554718,-1.618733826
9.538913727,-1.408570862,-1.642384644
9.414223022,-1.410516815,-1.644480286
9.466165009,-1.197809143,-1.89086792
9.583970032,-1.140628052,-1.870210876
9.531279602,-1.112037506,-1.748364258
9.582024078,-1.059796143,-1.943708038
9.548194427,-0.9993218994,-1.890269165
9.623188477,-0.9279203796,-1.947899323
9.451046448,-0.9677375793,-1.863624573
9.425898743,-0.8292755127,-1.770069122
9.500443726,-0.6915618896,-1.752705231
9.601333923,-0.6298901367,-2.092648315
9.591753845,-0.9406439209,-1.48251709
9.719588013,-0.01032852173,-1.838476868
9.763446808,-0.5870791626,-2.042801971
9.712552643,-0.5224136353,-0.05867797852
9.888885956,-0.01975891113,0.8012837219
9.465266876,0.4014651489,0.8984317017
9.879305878,-0.1540296936,0.6649172974
9.849966888,-0.4644841003,0.7403604126
9.656269684,-0.05044509888,0.4713697815
9.60762085,-0.366587677,0.2999761963
9.749825134,-0.1812730408,0.2686912537
9.56780365,-0.4334985352,0.339793396
9.631421356,-0.07918533325,0.1787283325
9.75730957,-0.3248245239,0.08726852417
9.845775604,-0.3553610229,0.3104544067
9.996212769,-0.3070115662,0.2576142883
9.751920776,-0.2386038208,0.3097059631
9.776769104,-0.2191442871,0.2859054565
9.816586304,-0.239052887,0.2526745605
9.824519806,-0.2562670898,0.1534309387
9.767338715,-0.2359094238,0.1606159973
9.972412262,-0.07783813477,0.1216969299
9.981842651,0.06541397095,0.2180964661
9.97375946,0.1278341675,0.5051994324
9.795480194,0.06915618896,0.417481842
9.816586304,0.09924362183,0.2314187622
9.55837326,0.1519340515,0.06825805664
9.759554901,0.03966751099,-0.06227050781
10.04441254,0.1490899658,0.03517684937
10.08647507,0.1510359192,0.2426454163
9.877659302,0.1347198486,0.07185058594
10.0541423,-0.04206253052,-0.05643264771
