AccX,AccY,AccZ
0.2612068176,-4.199666748,-2.069596252
1.564696198,0.2691403198,-2.196083221
0.8650511169,-1.651665344,2.43842926
-10.75992462,-49.9803154,-6.735543365
-6.234984283,-10.46473846,1.031055908
-3.905079346,-3.253634033,2.874322815
-0.3800596619,-0.09071136475,1.424886932
1.567689972,-1.127156067,-2.46073288
-1.401385803,-3.948339386,2.905757446
-13.9161113,-14.06669815,3.954476624
-11.58620636,-10.02749771,3.202440491
-8.889713745,-9.447004852,1.322499847
-7.348368988,-10.18018021,-5.455704803
-1.176403656,-1.410217438,-1.577868805
1.757944336,0.1529818726,1.018781433
-0.4484674072,-2.368075562,0.5098397827
-27.62849625,-34.00493637,0.1202000427
-6.360273743,-5.733227692,1.06009552
-6.803651733,-3.014730835,3.025658112
-0.933608551,1.078207855,1.439855804
5.243745575,2.251468048,-25.38211761
-0.5031037903,-0.7214996338,1.0683284
-34.35101669,-11.89202042,8.074508972
-13.07186691,-4.408632202,2.063908081
-16.60257477,-12.99178345,4.988975372
-8.372838593,-13.36810089,-6.926246796
0.6279441833,-1.137185211,-2.459086304
2.192341003,-0.7509883118,-1.496438141
-2.423759766,-5.3602034,1.271605682
-33.47054764,-40.99959091,-5.159321136
-9.105265503,-7.329957275,-0.06152206421
-4.409081268,-2.284549255,6.21193222
1.483115845,2.364183655,2.301015015
3.90463028,-2.665956116,-15.10299316
-0.7259902954,-0.04176315308,1.341660004
-37.08148865,-21.86607925,15.88182358
-15.0202153,-6.183641052,-29.25022385
-11.17590958,-14.50453766,1.248104553
-6.595135345,-8.322692871,-6.725514221
0.2665956116,-0.3844006348,0.2276765442
1.884431305,-0.562230835,2.534679108
0.6505471802,-2.567910004,1.125210114
-31.01445511,-43.78425018,8.051905975
-11.85729263,-4.054468689,-2.541564789
-3.803590393,-3.205284576,4.875062256
0.9806108093,0.4355941772,3.356170807
4.974305878,-3.122656403,-27.80527863
-0.1781295776,-0.5492079163,1.170416107
-35.54164078,-19.97371445,9.930200043
-14.34377197,-4.586911469,-4.805756378
-12.87667282,-9.863139496,3.522774353
-10.5346431,-14.44840439,-4.309089203
-0.2983296204,-2.402054901,-3.967050476
2.551593933,-1.046473846,1.951342163
2.411634979,-1.48955246,1.819316711
-9.471404114,-17.70578064,-9.803563385
-22.62709671,-20.64686462,-5.940396881
-5.225932617,-3.260819092,1.082848206
-0.8696914673,-1.208287354,4.537663879
0.4499642944,1.694925385,3.924239502
0.7732919312,-1.7902771,-0.6834786987
-1.036145325,-0.3556604004,0.5496569824
-47.85144241,-19.62359253,12.20891144
-16.06354568,-11.4303804,2.792742462
-8.158634033,-11.57288406,-21.82880676
-2.136207733,-3.761378174,-5.747148743
1.7995578,-0.5583389282,0.3146456909
2.325563965,-0.6240522766,1.505419464
-12.27058319,-21.61609909,-18.19945404
-20.07714935,-15.328125,-2.243384857
-6.244564362,-1.033899994,0.895587616
-0.9767189026,0.359103241,3.484603729
1.000818787,1.774559784,2.092199249
0.2803669739,-3.081941071,-1.007854156
-2.163900146,-0.4888833618,2.081421661
-27.82473816,-14.53402634,8.094417572
-13.87824005,-11.08654541,4.343816986
-9.826914825,-11.62916702,-16.04258926
-2.832409973,-4.135450287,-3.071163483
1.248553619,-0.853225708,0.132923584
4.406835938,-1.316063232,-3.544928284
-8.255782013,-16.69014267,-14.31488205
-26.75910416,-18.17355789,-3.838617554
-5.20572464,-1.010698242,1.045725403
-0.9295669556,0.1609153748,3.516038361
1.227297821,0.8131091309,3.426524506
0.3715274048,-1.866618347,-1.495540009
-1.614243164,-0.420176239,1.698517914
-32.01063354,-13.03609131,7.594457245
-13.06468185,-10.71187454,0.3067121887
-11.11798004,-9.564061432,-14.43583054
-5.649102631,-5.891298981,-3.586392059
1.102457428,-0.9054670715,-0.08068222046
3.464246063,-2.36478241,-0.3264710999
-5.124892731,-11.59159515,-8.009693756
-36.15102356,-35.69252701,-2.954555969
-5.717959442,-1.100661163,1.069525909
-2.561623077,-0.495769043,3.082988892
0.5288502502,1.530118103,3.249442749
0.9855505371,-3.500770111,-7.272776184
-1.191073151,-0.720302124,0.6682104492
-22.08597198,-14.59764404,6.168372803
-12.721745,-11.41915375,1.661694489
-8.351283417,-10.6115831,-15.81820587
-3.273093567,-3.650309143,-3.175346832
0.986149292,-0.3227288818,-0.1282832336
2.302362213,-2.187401276,1.436113586
-19.14384018,-25.03543854,-3.006348267
-23.16358109,-17.22557922,-3.356619873
-3.764671326,-0.07140151978,1.015338593
0.2291734314,-0.9292675781,4.111500092
1.122964783,0.2501298523,0.4215234375
0.1239422607,-1.441801758,2.183659058
-32.37437714,-16.60107788,9.42275528
-18.4799707,-8.396788788,2.563569031
-14.02448593,-10.6885231,3.250789948
-12.23361008,-10.49752029,-8.685987396
-1.987117767,-3.620072021,-5.783223724
1.502276001,-0.6966513062,0.9198371887
3.70449646,-3.449576569,3.648063812
-5.926326141,-14.9565976,-9.409283295
-33.88353882,-27.18242386,-2.59410553
-5.459297333,-0.6572831726,2.437680817
-1.593735809,0.679586792,4.038601685
0.2803669739,1.749711456,3.016078033
0.4543052673,-2.879861298,-1.968855743
-1.42862915,-0.4237687683,0.2562670898
-40.70096191,-19.19099213,9.208401031
-14.10097687,-13.52632187,-26.63665878
-12.00054474,-8.051007843,-0.5590873718
-3.408561859,-2.216590576,-5.883664856
0.4264631653,-0.2371069336,0.5237608337
0.230969696,-3.333717499,3.505111084
-20.6259082,-35.96840332,-9.426946564
-24.11395477,-11.80699722,-2.781964874
-5.987548828,-5.992189178,2.452200623
-1.99026123,0.7554789734,2.81519577
0.4755610657,1.392254791,0.3348536682
-0.08337661743,-3.825744324,-0.5029541016
-2.160756683,-0.56866745,2.408790894
-26.17292313,-11.14133148,7.448361053
-17.49142639,-9.975705414,2.721790009
-11.35119507,-11.63784897,-0.8431965637
-4.69558548,-4.492906952,-4.729265442
0.76640625,-0.6024971008,0.5680686951
2.156116333,-1.498384094,3.504063263
-2.609822845,-8.641829224,0.0715512085
-34.32556961,-34.32646774,-10.30741562
-6.684798889,-4.877756653,0.03622467041
-2.879112854,-1.031055908,4.650678864
0.8964857483,2.005230103,1.864522705
2.828368378,-1.814227295,-22.4600441
-0.8288264465,-0.1847158813,1.91421936
-31.11265091,-18.37144638,12.38344849
-16.1496167,-7.976313171,-9.607920227
-11.39370667,-10.85198318,2.092199249
-8.994046783,-10.02704865,-0.8451425171
0.6969506836,-1.559906158,-1.958527222
3.818259888,-2.149979095,-3.301534424
-1.925146637,-5.184917908,3.37682785
-33.6621492,-36.99796234,3.205284576
-10.05593857,-4.051474915,-0.9141490173
-4.20640274,-0.399818573,3.063379669
0.3260220337,0.6695576477,0.4483177185
5.145250397,-1.217268677,-20.26620621
-1.668729858,-5.00678833,2.823877716
-21.99361404,-14.9923732,10.37791901
-14.41128159,-3.975732422,3.529510345
-16.37190445,-7.06964859,-0.2046244812
-12.55738678,-8.644972687,-7.369774475
0.500559082,-1.594484253,-7.114555206
1.108894043,-0.2520758057,1.284329224
0.9392967224,-2.198478241,2.791544952
-21.22391464,-29.78446289,-10.53030212
-21.44530426,-12.40126144,-3.058889008
-6.510261841,-2.887196045,2.9767099
-1.032103729,0.5366340637,2.902613983
0.4713697815,1.694925385,0.7364685059
-0.2766247559,-3.06802002,0.08277786255
-3.63548996,-0.7475454712,2.600242767
-23.30892883,-7.856711884,7.206763458
-15.8948465,-10.5876329,2.451152802
-11.00765945,-12.02823715,-15.29579224
-2.939736786,-4.26852356,-3.368594971
1.380429382,-0.422870636,0.2357597351
3.78637619,-2.261646881,-0.9439370728
-7.445666656,-14.3274559,-12.78027328
-37.98366257,-37.59387314,-2.589465179
-6.508315887,-0.9800120544,0.05643264771
-1.784738617,0.3124003601,3.117716675
0.7111711121,2.027234344,1.804198151
0.5783972168,-3.056044922,-2.089504852
-0.8217910767,-0.5785469055,4.015100555
-34.49247253,-18.58924347,7.530540161
-14.76903763,-7.661368103,3.274291077
-11.96417038,-11.72377029,1.625619507
-5.232518921,-8.688232727,-2.66311203
1.055754547,-0.422870636,-0.1043330383
3.860172729,-1.26247467,-2.040107574
-0.5132826233,-2.985840912,4.078418884
-39.53548553,-47.53949112,0.3899391174
-7.977061615,-4.267475739,-3.869154053
-3.729644165,-1.852846985,5.292394409
0.690813446,1.267264709,2.098785553
4.405638428,-3.520978088,-30.80683685
-0.4574487305,-0.5683680725,2.880609741
-26.9788472,-16.36157593,12.43928238
-19.75187576,-4.066593475,-21.8229689
-12.27522354,-9.949659576,1.776954803
-8.340206451,-8.413404236,-3.389850769
0.9077124023,-0.9627978516,-1.608405304
1.816322937,-0.8857081604,0.9779164124
0.3519181824,-3.495980072,3.867956543
-25.56458817,-40.02676392,7.88290741
-12.0262912,-8.605903931,-3.423979797
-4.583318939,-2.658771057,4.98568222
0.2683918762,0.6927593994,1.655257874
1.992506561,-0.02709365845,-28.5528241
-0.4059558105,-1.691632233,1.359173584
-33.66469391,-16.32011215,12.72623566
-19.48348389,-5.131628723,-3.619622955
-12.3527623,-10.76231964,3.315605164
-8.776998138,-14.162948,-14.5783342
-1.385668488,-3.758085022,-3.599564667
1.778451691,-1.003213806,0.4824467468
2.684517517,-1.275048523,-0.6973997498
-17.30132172,-22.64071838,-15.48574722
-35.54568237,-13.12859894,-1.872755585
-5.578898621,-2.280956726,2.261347504
-1.07416626,0.7532336426,2.631078644
0.7699987793,2.362686768,1.063837738
0.3375480652,-2.264790344,0.1014889526
-1.868414612,-0.6159690857,2.712509308
-31.99042557,-18.88921967,7.204518127
-14.23599609,-9.335486755,3.528312836
-12.31309479,-12.89074356,0.6010002136
-5.756130066,-6.393804016,-3.802392883
0.9738748169,-0.4219725037,-0.05433700562
2.73451355,-1.54688324,2.566113739
-2.769241333,-6.686744843,-7.148684235
-37.31649994,-44.59556305,-0.4819976807
-10.27942383,-3.442092133,-2.026934967
-3.372486877,-1.772613831,4.956343231
1.303339691,2.162852325,2.429897003
2.118544464,-2.604284363,-2.502196655
-0.3044668579,-0.1639091492,1.332379303
-36.12767212,-21.13245483,10.438992
-16.06534195,-8.059390411,-0.6447093201
-11.03190903,-11.65670975,2.681523743
-8.826844482,-11.96357162,-2.208806763
1.140178986,-1.012344818,-2.711461487
2.134860535,-0.8050259399,0.7062313843
0.05777984619,-2.481240234,4.167333984
-39.10917206,-43.93842957,0.3966751099
-17.99288361,-11.69952072,-3.068768463
-5.27009079,-2.372416534,4.682412872
-0.06017486572,1.148561554,2.299667816
4.811893616,-1.659748535,-26.4838266
0.5092410278,-0.3962260437,0.3457809448
-17.11061829,-6.32434845,11.01679047
-24.03551788,-2.808459778,-19.60592926
-12.31444199,-9.791139221,3.031046906
-7.323820038,-14.05053177,-13.50521576
-0.4593946838,-3.725153503,-2.620899811
2.816243591,-2.175575867,-2.322719879
1.592238922,-1.640588379,2.140548706
-26.99755829,-37.52606415,-1.446442108
-27.25442413,-15.06631943,-2.549498291
-5.933810577,-2.711910553,1.658101959
-0.3091072083,0.9806108093,2.022294617
0.8159532166,2.160606995,-0.04790039063
0.2339634705,-1.874102783,0.04370910645
-17.42152176,-8.341853027,8.10983551
-16.95793579,-3.720363464,3.570375366
-14.99147507,-7.106621704,0.7631130981
-9.859996033,-13.24625427,-11.14612152
-2.834954681,-4.622387695,-3.305276642
1.379082184,-0.928818512,0.3285667419
2.649490356,-2.117496643,-0.0339793396
-9.577084351,-11.89501419,-13.13563431
-36.28634216,-34.81999146,-4.090393982
-5.517077179,-3.847449188,0.5694158936
-2.719544678,-0.3606001282,3.644620972
1.001716919,2.130519562,2.075583801
1.876946869,-2.868634644,-2.285597076
-1.107397156,-0.7340734863,0.8524772644
-32.64815781,-20.07265869,9.849218445
-14.97485962,-9.748927002,-0.04819976807
-10.90931396,-11.85729263,0.5260061646
-6.832242279,-7.410340118,-2.834804993
0.7976911926,-0.2896476746,-0.5279521179
2.211201782,-1.132993927,0.7955955505
-5.820645905,-10.79854431,-7.432194672
-33.01833801,-38.72013107,4.355492706
-8.576564941,-4.212090912,0.3570075989
-2.678829346,-0.8734336853,4.733157349
1.095422058,2.35535202,0.9484277344
1.964963837,-1.4730867,-3.699257355
-0.3329077148,-0.5858816528,0.8551716614
-42.34634033,-23.58360764,14.73999802
-14.32640808,-6.561754761,-2.922223206
-13.4647998,-11.29610962,2.864143982
-9.849068756,-13.14985474,-2.221230927
0.4601431274,-1.982776794,-2.28874054
1.814526672,-0.7357200623,0.100740509
2.009870453,-1.509311371,1.263971558
-20.15962784,-28.97794006,-5.295388184
-26.15915176,-25.28796341,-3.744014282
-5.816903687,-3.064128113,3.216211853
-0.4773573303,0.8385562134,3.486699371
0.8755293274,2.046394501,1.374591522
0.7955955505,-2.462080078,0.2303709412
-1.710343323,-0.1695973206,2.255359955
-29.06595703,-15.16526367,6.021378479
-13.69561981,-8.692424011,3.783532104
-12.77323792,-14.74059677,2.554438019
-7.339237976,-11.87645279,-2.758164368
1.838027802,-0.3647914124,-0.8345146179
3.14989975,-0.887504425,-0.3743714905
0.9994715881,-2.316582642,3.126398621
-29.32806198,-38.19666962,2.882855072
-7.495063934,-4.907245331,-1.89431076
-4.17257309,-2.28874054,4.67911972
0.9282197571,1.620380402,2.679877167
3.932023315,-2.314037933,-20.43700104
-0.187559967,-0.7972421265,-0.09490264893
-18.8781427,-9.142837372,15.54217987
-21.76653625,-11.24536514,-10.91530151
-12.76605286,-10.12225067,3.841910706
-8.300239563,-10.86141357,-2.696193237
0.9508227539,-0.682281189,-1.906285858
2.243983612,-0.8643026733,-0.3403921509
0.6381230164,-2.199975128,3.776197357
-29.6953981,-41.3049559,6.516698456
-13.73947861,-10.62610291,-4.533023529
-6.127358093,-3.900588684,4.36447403
0.2260299683,1.357077942,2.276316376
0.2890489197,1.647923126,1.460363159
-0.1700463867,-1.504371643,0.3885919189
-3.526067505,-0.5824388123,3.438200226
-24.00228699,-7.530989227,5.615123291
-11.95414124,-9.994416504,3.244952087
-6.566095734,-13.01483551,-12.52206024
-1.880838776,-4.004921722,-2.833008728
2.258802795,-1.559606781,-2.656226349
2.386187897,-1.440454559,1.400188293
-20.07565247,-25.23527298,-13.51165237
-32.479758,-28.19566681,-2.448458405
-5.447471924,-2.678829346,1.885329437
-1.371747437,0.9181906128,2.502496033
0.05807922363,1.827100525,1.037193146
0.458795929,-1.868115234,0.1844165039
-1.229842529,-0.2866539001,1.994003448
-31.0132576,-18.94430511,8.812174988
-15.55894501,-10.97562607,3.00949173
-7.333849182,-13.0507608,-16.15665207
-3.709286499,-6.016887817,-3.859274597
1.042282562,-0.5559439087,-0.8774752808
2.897973633,-0.8503816223,-0.6979985046
-6.3979953,-10.79225739,-10.00175125
-38.48901169,-44.34633133,-4.053570557
-6.673422546,-2.551144867,-0.9497749329
-1.991758118,-1.192869415,5.350174255
0.8997789001,2.086361389,2.49935257
2.505040741,-2.961142273,-13.13264053
-0.443228302,0.2191442871,-0.2900967407
-39.74534912,-24.56855942,20.30063461
-12.51801865,-3.944746857,-32.1014946
-13.20763458,-13.92419449,1.958377533
-8.631051636,-12.24902802,-3.381767578
0.9208850098,-0.562230835,-0.6634204102
3.32189209,-1.146316223,-3.289409637
0.7322772217,-1.740879822,3.168910217
-35.16008423,-46.89567993,9.394314423
-10.52581146,-5.168601837,-4.531227264
-4.82312027,-2.745590515,4.819378052
0.5474116516,1.219514008,2.445913696
2.929707642,3.107088776,-20.12774414
0.7472460938,-0.6256988525,1.228046265
-4.644691315,-5.32158371,9.972861328
-36.49725357,-19.78091537,10.56996964
-11.2618309,-9.061706085,3.262615356
-8.722810822,-10.86395828,-8.765322418
-0.3197351074,-2.83046402,-3.465892639
2.0570224,-1.042432251,0.2606080627
1.99265625,-1.485361176,1.58894577
-22.08806763,-31.41996185,-5.472919006
-21.55143356,-13.20583832,-4.067641296
-4.843627625,-2.182611237,1.987566833
-0.076640625,0.8063731384,3.013383636
0.8093669128,1.107696533,1.059796143
-0.1706451416,-1.47428421,0.9145980835
-4.181404724,-1.133742371,3.901187439
-24.85221954,-8.78268631,9.558972015
-13.99335068,-11.49564468,0.8538244629
-8.585396576,-12.9964238,-17.86205566
-2.456691284,-3.91271347,-5.815257111
0.7417076111,-0.136665802,0.1649569702
1.996398468,-0.999022522,2.160457306
-9.491462402,-17.77882874,-12.25067459
-32.21106674,-18.64268234,-1.645378418
-6.693031769,-3.462749176,0.590072937
-1.460363159,0.2383044434,3.614683228
1.220561829,2.313139801,1.159638519
0.4333488464,-2.865940247,0.1230441284
-1.246757355,-0.4165837097,0.4378395081
-34.57839386,-17.51866974,9.074579315
-12.46697479,-6.600823517,-0.7042854309
-14.01924683,-14.1151973,2.817740479
-7.437134399,-9.943672028,-4.002676392
1.098116455,-0.5804928589,-1.680854645
2.029928741,-1.078357544,1.098864899
0.3558100891,-3.645519104,3.927832031
-22.77154633,-33.41486343,1.913620605
-15.73931992,-6.687642975,-1.399589539
-5.810916138,-2.19862793,4.004772034
0.07708969116,1.14901062,1.40063736
6.901099091,2.602637787,-28.12007401
0.287252655,-1.697619781,-0.0245489502
-23.0346991,-12.57055939,9.453591156
-22.46618134,-4.692142639,-9.300758972
-13.25328964,-10.80168777,3.889811096
-9.691446533,-10.98101486,-9.575288086
-0.6435118103,-2.570604401,-1.731299744
1.575773163,-0.9590556335,0.3812571716
2.464774475,-1.97155014,1.244661713
-11.09747269,-21.36312515,-11.97120575
-31.88549377,-11.99261124,-5.755231934
-5.898633728,-3.264860687,1.327589264
-1.061143341,-1.039887543,5.617518311
0.6788383484,2.024839325,1.680405579
0.6164181519,-1.722019043,-0.6584806824
-2.870580597,-1.757944336,1.39943985
-24.8793132,-13.27888641,5.967340851
-13.68753662,-9.546248474,2.678230591
-10.75812836,-12.93340485,-12.79434402
-5.731730804,-7.426057434,-3.336860962
0.7695497131,-0.3210823059,0.1360670471
2.01600769,-0.9111552429,1.781295776
-4.839885406,-8.84001709,-8.127049713
-36.0336676,-42.26356247,-1.719174957
-7.652536469,-4.043092346,-0.4906796265
-4.169429626,-1.806293793,5.097350006
0.9783654785,1.712588654,1.522483978
2.713557129,-2.482737122,-8.689130859
-0.5998027039,-0.2302212524,0.2975811768
-37.62575684,-18.12161591,13.48066681
-15.78272964,-4.839586029,-19.35430252
-13.31136887,-10.7853717,2.562371521
-9.193881226,-11.69727539,-4.701722717
0.4617897034,-1.212029572,-1.247206421
2.211351471,-1.480271759,-0.7117698669
0.7533833313,-2.658022614,3.3522789
-25.50291641,-39.05887665,0.07619155884
-19.35969131,-9.239835663,-3.500021667
-4.879552917,-2.138153687,4.040397949
-0.145796814,1.13029953,2.953508148
3.948788452,-0.4378395081,-22.15902008
-0.3894900513,-2.683320007,1.619482269
-15.09206589,-6.910679169,8.408614197
-22.98859497,-3.102598114,-8.446485443
-15.10134659,-9.483229523,3.192261658
-9.59474762,-15.43649963,-20.74595856
-0.4805007935,-2.487976227,-3.945794678
1.434167633,-0.7710466003,0.4053570557
3.449127502,-1.54568573,0.160765686
-6.991960144,-13.43710739,-8.53225708
-41.20825699,-37.59147812,-2.126777344
-5.549260254,-1.148262177,1.899549866
-2.027683411,-0.3668870544,4.916226654
-0.2230361938,2.103276215,1.95643158
0.1167572021,-2.833158417,-0.103434906
-4.973557434,1.470392303,-13.56269623
-37.45975204,-21.37255554,18.61977997
-16.5052771,-11.3056897,-0.9937834167
-10.47042664,-11.27679977,2.406246185
-5.881419525,-9.284742279,-0.2885998535
3.024161224,-1.677112427,-5.610482941
2.497107239,-1.071920929,-0.8943901062
-1.910626831,-4.52359314,2.559826813
-36.71834381,-42.13168671,1.037193146
-5.657934265,-5.818400574,-0.9503736877
-4.345613251,-1.637145538,4.665348358
0.7258406067,1.369801483,1.547332306
4.903203735,6.450386353,-29.41952179
-0.1706451416,-2.120939484,0.9966275024
-37.89340027,-17.4581955,14.91648102
-18.7122876,-7.453001404,-7.504793701
-13.87240219,-10.98760117,3.274889832
-11.09313171,-12.21594681,-3.268902283
-0.2312690735,-2.090852051,-1.352138214
1.370400238,-1.091081085,0.4281097412
2.67134491,-2.346370697,1.23089035
-9.641600189,-17.91788956,-9.055868225
-35.26321976,-36.09039963,-2.58587265
-6.89181839,-1.287772064,1.879940643
-2.806813202,0.5339396667,3.631598053
0.2436932373,2.138752441,1.864672394
0.9295669556,-2.211950226,-0.6530918884
-3.225342865,-1.728455658,-5.25721756
-26.6430954,-17.17588257,12.17612961
-13.93422363,-11.1145372,-16.45049103
-13.46869171,-13.57092911,0.3760180664
-6.971452789,-7.576793976,-4.993765411
0.6676116943,-0.1710942078,-0.1146615601
1.379680939,-0.5221142578,2.365081787
-0.5165757751,-4.248764648,3.63548996
-29.74210098,-37.11097733,5.584586792
-9.258097687,-2.252216492,0.6292913818
-3.007246399,-1.514700165,5.70763092
1.593586121,2.323917389,3.220403137
1.497186584,-3.592379608,-3.01877243
-0.6459068298,-0.3031196594,-0.119002533
-36.26284103,-18.01997726,16.59464127
-14.63955688,-6.564898224,-10.02210892
-11.79562088,-11.15734818,-0.8885522461
-7.56930954,-9.569450226,-1.397344208
1.846260681,-1.883233795,-3.639980621
2.281854858,-1.78324173,1.164877625
-1.560205536,-6.671027527,1.237326965
-38.04323868,-35.79386627,-4.251009979
-8.374036102,-1.338965607,2.506986694
-3.655248871,-0.03098556519,3.692970428
0.2369572449,2.248174896,2.144290924
0.6005511475,-5.542524261,-11.70550827
-1.287622375,0.3267704773,0.2546205139
-30.31795349,-10.699151,14.84942047
-22.09914459,-12.77533356,2.53093689
-9.553583221,-11.38771912,2.48528183
-3.384461975,-17.32512222,-14.04948395
0.3007246399,-0.9258247375,0.1239422607
2.61865448,-1.498384094,-1.956730957
0.2782713318,-4.049528961,2.908601532
-33.87410843,-38.49365204,2.567760315
-11.57797348,-4.315825195,-2.964585114
-4.912484436,-1.965113525,3.784579926
0.623303833,-0.3056643677,3.705394592
1.219514008,-0.04505630493,-0.9698332214
-0.4373904419,-0.8726852417,1.421144714
-31.57698532,-16.13689316,9.870773621
-13.50970642,-3.075504456,-0.5072950745
-13.67690872,-12.22582626,-4.61131073
-8.587791595,-10.12090347,-6.431226196
-1.592089233,-3.119213562,-1.034798126
2.720891876,-1.624871063,-2.167792053
-0.2198927307,-3.169508972,2.993175659
-24.50718704,-33.61200348,5.471422119
-19.3864856,-4.794679413,-2.120789795
-4.822820892,-0.6397695923,1.83233963
-0.6764433289,0.3201841736,1.728156281
1.591939545,-0.8050259399,-0.786763916
-0.06526428223,-2.496807861,2.657723236
-24.5555365,-12.91469376,6.990762634
-19.00807251,-4.166286163,2.370470581
-14.67308716,-7.989036713,3.059936829
-11.79427368,-12.12778015,-3.98291748
-1.965562592,-3.68922821,-2.489323425
1.614093475,-1.484612732,-0.6177653503
1.597028961,-2.561024323,2.152374115
-19.5005484,-27.09635284,-2.405946808
-32.61462753,-24.34223007,-4.309687958
-6.35713028,-1.797911224,2.638862457
-1.721120911,0.7228468323,3.953428802
0.2562670898,2.384092255,1.114133148
0.7002438354,-2.568957825,-0.9843530273
-1.579515381,-0.003442840576,1.808090057
-29.99627243,-16.21323441,9.06469986
-15.34893173,-10.06596771,4.560266876
-7.279362488,-13.67166962,-20.21471329
-6.059249725,-7.436385956,-3.359613647
1.801354065,-1.33971405,-1.538350983
2.863096161,-1.656305695,0.189206543
-6.964417419,-11.48022675,-10.27643005
-34.21674591,-33.67472305,-5.844745789
-7.447462921,-4.801265717,0.8448431396
-3.178340607,-0.950223999,4.215084686
0.9714797974,2.002086639,0.8063731384
0.2124082947,-2.975362701,-2.070494385
-1.955383759,-1.049018555,1.469793549
-22.52650589,-10.95586716,6.252797241
-15.15388733,-8.034392395,-7.949069824
-12.65827698,-12.86185364,0.1904040527
-4.279899902,-6.601422272,-4.595443726
0.9602531433,-0.5324427795,-0.4140390015
3.392245789,-3.028951263,-3.446732483
-2.155966644,-6.794371033,1.582808533
-35.24046707,-34.03951447,1.557660828
-12.21415054,-4.108057251,0.04909790039
-3.87529129,-1.222657471,4.086352386
0.8533753967,0.6285429382,1.44973526
6.313271484,-3.010988617,-24.07548477
0.06152206421,-1.030756531,1.104104004
-26.8474205,-16.05486374,11.59354111
-17.68093231,-7.22757019,-5.51572998
-12.10203369,-10.06806335,1.61708725
-8.960815887,-8.716823273,-5.223088531
1.030606842,-0.2219883728,-2.017953644
2.227368164,-1.54329071,-1.397344208
1.486708374,-4.013603668,1.087488556
-22.36229736,-38.44889511,-4.397704926
-23.52238495,-6.72910675,-1.911674652
-5.403613129,-0.9217831421,2.375709686
0.2245330811,1.212628326,1.884580994
0.9409432983,2.047741699,-0.8884025574
0.01631607056,-1.984123993,0.2887495422
-14.12941772,-5.182672577,11.09088638
-21.29905838,-1.769021301,2.004182281
-14.55528214,-11.4410083,4.992418213
-7.5751474,-12.59810211,-10.89509354
-1.290167084,-3.336112518,-6.157146149
1.309177551,-0.9578581238,0.016615448
1.391057281,-2.491868134,2.796784058
-18.57232864,-25.92429016,-8.95587616
-31.46067719,-19.30490524,-2.947819977
-6.106401672,-2.185904388,2.831212463
-0.9370513916,0.9813592529,2.641556854
0.567020874,1.951791229,0.6351292419
0.5909710693,-2.201921082,0.8297245789
-1.721719666,-1.338067474,-0.7722441101
-28.61599274,-16.03839798,8.756041718
-11.9360289,-8.027806091,3.025957489
-11.64218994,-12.99986664,0.1386117554
-7.056625671,-8.923244019,-4.81728241
2.191143494,-1.551673279,-3.145109711
2.309996338,-1.821412354,0.2960842896
-7.697443085,-12.24169327,-11.2631781
-34.15163132,-30.70430008,2.250719604
-7.54236557,-3.451223145,0.8987310791
-2.772384796,-0.7291337585,4.417463837
0.9337582397,1.924547882,1.608704681
3.734583893,-1.846859436,-14.17432434
-0.4210743713,-0.357456665,-0.8903485107
-35.55152023,-18.2822319,17.76385986
-14.3075473,-3.069217529,-25.28601746
-15.32513123,-12.74494675,2.193239136
-6.647975464,-10.84704346,-2.194137268
1.072669373,-0.8358618164,-0.7776329041
3.856131134,-2.730471954,-1.149908752
-0.3727249146,-3.833378448,3.692521362
-35.81572083,-39.79399796,5.434598694
-8.857231293,-3.804937592,-0.3456312561
-3.952231293,-1.466949463,4.68031723
1.185235291,0.7580236816,1.625469818
4.883744202,-3.224594421,-25.25787598
0.2016307068,-0.6234535217,1.095272369
-33.73789169,-17.8390036,13.92209885
-22.35945328,-4.177363129,-15.33575912
-14.09933029,-10.10683273,2.799179077
-8.100854187,-12.56951157,-8.802894287
0.8205935669,-1.310824127,-4.956792297
1.09991272,-0.7247927856,0.8415499878
2.416425018,-2.119741974,-0.6568341064
-15.61777267,-27.07764175,-9.070837097
-34.47316269,-11.55432266,-1.58894577
-7.081174622,-2.522254944,2.699636078
-0.623303833,0.845741272,2.604733429
0.6071374512,1.879042511,0.1860630798
-0.2191442871,-2.547851715,1.008003845
-2.810106354,-1.02387085,3.264261932
-29.71710297,-12.68896317,7.65358429
-15.26585449,-10.31370255,1.154698792
-12.46742386,-12.63507523,-0.2460882568
-6.762487335,-7.888595581,-2.813100128
0.7170089722,-0.3926335144,-0.04505630493
2.61745697,-2.339634705,-1.110241241
-9.389075317,-15.17738846,-13.28756836
-39.24374222,-33.62936737,-7.393425293
-5.627248077,-2.186203766,4.568200378
-2.320923615,-0.1842668152,3.785777435
0.7457492065,1.959425354,1.739682312
1.319955139,-2.218087463,-6.51505188
-4.499792633,0.5733078003,-14.11459854
-37.03673172,-15.98585724,21.65501816
-13.67645966,-11.92031158,-25.38481201
-11.93557983,-10.84375031,3.395838318
-7.600145416,-9.517957306,-1.543889465
1.248703308,-0.5677693176,-3.15573761
1.637744293,-0.5252577209,0.7360194397
-2.376907196,-5.087769928,2.852917328
-38.35863281,-36.68062225,5.042264557
-7.341932373,-4.48497345,-0.5593867493
-4.381538544,-0.8261320496,4.06838974
0.7243437195,0.6143225098,-0.1425036621
4.714745636,-0.9422904968,-12.36982681
-2.815644836,-3.285218353,-0.5987548828
-29.03631866,-6.292913818,9.602681122
-15.604151,-8.460556183,1.004561005
-15.59801376,-15.013629,-3.981869659
-9.799372101,-7.013215942,-8.682544556
1.039139099,-0.6785389709,-3.817810822
1.526525574,-1.001866608,0.9490264893
0.3320095825,-4.487667847,2.703527985
-28.21826981,-33.32340363,7.067852325
-24.43398926,-11.06289459,-2.710263977
-5.27353363,-2.119592285,3.646117859
1.281485138,1.953737183,3.414549408
5.828280029,3.570375366,-24.41063782
0.1221459961,-2.2746698,-0.702638855
-30.94170639,-14.39062454,13.49548599
-17.28799942,-2.184108124,6.054908752
-15.94873444,-11.65641037,4.065246277
-9.242679749,-11.77241913,-5.776188354
-0.609382782,-2.259551239,-4.379742279
2.201621704,-1.447040863,-1.932182007
-1.446142731,-4.151916046,4.311184845
-31.36128387,-29.31638626,5.879323883
-13.62990646,-4.127666473,-0.7482939148
-3.985761566,-0.7764353943,3.724854126
0.4641847229,1.120420074,2.61745697
0.8524772644,0.8943901062,-0.8132588196
-0.8077203369,-0.5634283447,-0.5177732849
-12.19858292,-2.474953308,12.13990494
-23.72416534,-9.712402954,6.866520996
-14.77801895,-11.21722366,4.371060333
-7.872578888,-6.732399902,-11.60626465
0.5655239868,-1.137484589,-3.476221161
1.112336884,-1.346450043,-0.07828720093
-1.940115509,-5.877976685,3.932921448
-30.64307739,-28.73604309,5.218298492
-18.91586426,-5.535788269,-0.09011260986
-5.613177338,-1.286873932,5.099595337
0.5197192383,0.9044192505,1.936672668
5.55434967,-2.580633545,-22.24015137
-0.7373666382,-0.2287243652,0.8723858643
-31.98234238,-12.3593486,11.29925308
-20.12654663,-9.921817474,2.441123657
-9.828561401,-11.84831131,1.963017883
-5.060825958,-13.99260223,-8.269403687
0.07200027466,-0.3902384949,-0.6363267517
1.812281342,-1.178798676,-1.024170227
-0.1534309387,-2.800376587,2.69709137
-44.65244476,-31.17746613,4.44395874
-9.82751358,-3.382366333,-1.328337708
-4.975503387,-0.7800279236,4.557871857
0.8508306885,0.5173242188,2.146087189
3.842359772,-7.98469574,-11.95309341
-3.094664612,-0.6008505249,-2.302362213
-30.36226135,-14.35425018,14.47489929
-15.10568756,-6.975045319,-0.8548722839
-13.72196503,-10.62700104,1.62876297
-8.422086182,-8.884624329,-5.230722656
1.235231323,-1.213825836,-2.65727417
2.293231201,-2.223326569,0.3595523071
0.3496728516,-5.876030731,3.989503784
-33.73504761,-34.56372437,4.371808777
-20.57770844,-6.000272369,-3.83203125
-4.32929718,-2.037862244,3.802542572
0.1460961914,0.6541397095,5.110223236
0.0505947876,3.447331238,0.01451980591
-0.245489502,-1.823208618,-0.4760101318
-20.73727661,-6.617438965,11.72272247
-22.60209869,-3.354374542,-9.029373322
-13.72570724,-10.14605118,5.115462341
-7.471562805,-15.65833832,-18.93487473
-3.463796997,-5.216352539,-6.268215179
1.037791901,-0.2929408264,0.5010081482
1.416504364,-0.9145980835,-0.01960922241
-12.79105087,-19.28439789,-13.06258621
-31.42819473,-17.22542953,-4.258943481
-5.896388397,-1.542691956,0.3171903992
-2.997516632,0.1026864624,3.596720581
0.5608836365,2.268083496,0.9912387085
0.385897522,-2.101779327,-0.3980223083
-1.723066864,-1.176553345,2.429447937
-14.14423691,-3.666475525,-1.766326904
-16.31068176,-8.27479248,2.06750061
-11.46510818,-13.85428986,-7.735913086
-7.793393555,-4.554728394,-4.530927887
1.40991806,-0.2043251038,-1.485361176
1.706601105,-1.013392639,1.444945221
-4.352798309,-10.21535706,-6.359225922
-33.00471634,-36.15805893,0.3285667419
-13.76971573,-3.919299774,-0.2118095398
-3.998934174,-0.08936416626,4.071682892
0.992585907,2.203717346,2.026485901
6.432124329,-2.552042999,-4.309089203
-0.5331912231,-0.6246510315,0.08696914673
-30.02995239,-15.04656052,14.62563583
-20.38371185,-3.58863739,-15.55625061
-14.52983505,-12.00952606,1.583856354
-9.039552155,-10.35337006,-2.785856781
0.9647438049,-0.7325765991,-2.12019104
2.575244751,-1.941313019,-1.621278534
0.7482939148,-3.006198578,1.785636749
-37.83891357,-38.23888184,3.347189484
-12.51906647,-4.667893066,-4.111051025
-5.378764801,-2.125729523,3.575913849
-0.01945953369,0.6978488159,2.766247559
7.17263443,-0.04969665527,-30.96775223
-0.1043330383,-2.221679993,1.557211761
-30.25777863,-14.78490463,11.37544464
-20.69730972,-1.137634277,-25.3265831
-13.15898575,-8.304430847,3.792962494
-9.514514465,-13.79860565,-19.57269836
-1.458866272,-2.27227478,-3.327580261
1.72231842,-0.9375004578,-0.552052002
2.042352905,-2.611469421,0.5023553467
-15.43185928,-21.72866501,-3.852987671
-33.25499588,-25.74571152,-2.788700867
-6.263724518,-2.200424194,1.347797241
-0.9023236084,0.762664032,3.422931976
0.7029382324,1.919907532,0.5580395508
0.1595681763,-2.998564453,0.5637277222
-3.074306946,-1.99849411,3.719615021
-22.39343262,-3.795058136,-1.762434998
-13.39788895,-6.456822968,2.867287445
-11.51615204,-14.47669556,-13.82764526
-4.440665588,-4.395010529,-4.363426208
1.014141083,-0.1996847534,-0.3598516846
3.85538269,-3.130290527,-3.311114502
-4.64409256,-10.30202682,-3.870201874
-38.46027145,-40.04547501,-0.8628057861
-8.318800964,-3.968247986,-0.6987469482
-3.193010101,-1.272653503,5.423222351
1.051263885,2.159858551,2.459685059
0.9424401855,-2.83749939,-7.742050323
-0.7330256653,-0.06930587769,0.943787384
-27.41025009,-15.47796341,17.82014282
-18.13748291,-6.46116394,-2.437531128
-13.12470703,-10.12299911,1.790576477
-9.698781281,-11.3746962,-3.405717773
0.9455836487,-0.9354048157,-0.6788383484
2.82223114,-1.962868195,2.032024384
0.5933660889,-5.122797089,1.498533783
-31.52803711,-35.41515381,3.532803497
-17.10418167,-4.81144455,-1.848206635
-6.007756805,-1.674867096,4.956193542
0.7643106079,1.773212585,1.843117218
4.287384338,-0.2742297363,-15.65085388
0.3165916443,-1.470242615,1.339264984
-32.88541443,-18.33342545,14.08750488
-19.19518341,1.059796143,-29.74734009
-13.48530716,-8.806187439,2.656675415
-9.560618591,-13.12201263,-17.48768417
-0.9171427917,-2.57539444,-2.027533722
2.231110382,-1.836381226,-0.7532336426
2.176473999,-3.496878204,0.5207670593
-24.50613922,-27.55604691,3.689976654
-28.51644974,-18.35513031,-4.751569061
-4.347858582,-1.188678131,2.746937714
0.3113525391,0.8503816223,3.263812866
1.373394012,1.352437592,-0.265847168
0.899329834,-1.767225037,-0.4234693909
-3.376678162,-0.8731343079,5.059628448
-30.92928223,-10.3819606,9.872420197
-14.37026688,-10.05803421,3.610342255
-9.134454803,-10.10204269,-13.4091156
-2.26523941,-2.883603516,-2.919229431
2.180066528,-1.965562592,-0.902024231
1.323697357,-2.414928131,2.306403809
-21.93598389,-26.22321854,0.8833131409
-33.17491241,-19.86563919,-3.918401642
-4.874164124,-0.6613247681,1.965562592
0.1113684082,1.346000977,2.409090271
4.097579041,1.991608429,-13.74262207
0.6144721985,-2.838547211,1.420545959
-4.226760406,-2.528242493,4.409380646
-24.61406479,-4.347259827,-0.07020401001
-14.85316269,-9.217082977,3.473077698
-10.62759979,-8.131540375,-8.728199615
-0.6387217712,-1.604513397,-2.155218201
1.713337097,-1.056353302,0.3255729675
2.336191864,-3.016826477,-0.008831634521
-16.08510086,-26.43936905,-5.580545197
-34.63153336,-28.30778366,-0.9086105347
-9.919721832,-1.622326355,0.8906478882
-1.973196716,1.021176453,3.699556732
0.3945794678,2.371518402,1.130149841
-0.1655557251,-2.111209717,-0.7003935242
-3.397484894,-0.8463400269,1.897603912
-24.09284866,-12.58178604,8.177195435
-15.24160492,-8.342451782,3.657344513
-11.17920273,-13.2937056,-1.044378204
-7.951464844,-8.650211792,-4.243226166
1.184786224,-0.6750961304,-0.4575984192
3.241958313,-2.952011261,-0.5351371765
-0.2595602417,-5.376669159,2.528691559
-32.87598404,-38.15206238,3.697311401
-12.64555344,-2.448009338,-2.665357361
-4.582271118,-1.322948914,4.674629059
1.445244598,3.201093292,4.092789001
2.18216217,-4.677922211,-10.1045874
0.150586853,-0.7430548096,0.7038363647
-25.98491409,-16.28194153,20.27683411
-19.03920776,-0.8048762512,-30.94380203
-13.90323807,-9.558223572,3.519481201
-8.913813629,-13.09955933,-11.06783432
0.043409729,-1.866468658,-3.008593597
1.344354401,-0.4794529724,1.379830627
2.208507385,-2.804268494,-0.1236428833
-19.95335678,-29.15412369,2.458637238
-21.71609116,-9.309141541,-6.306086426
-5.128036194,-1.169368286,3.460354156
-0.4812492371,1.89790329,5.548062744
1.918410645,6.044879608,-9.363478546
-0.1989363098,-4.133354645,-2.577639771
-5.892945557,-1.287921753,8.012986908
-34.27722015,-17.15492615,7.667355652
-16.14841919,-9.482032013,4.185296631
-6.250851288,-10.91889404,-25.58210175
-0.6008505249,-2.297272797,-3.098706207
1.629361725,-0.7253915405,-0.1451980591
0.9815089417,-2.037862244,1.787433014
-28.27949249,-32.0736525,2.041454773
-23.24516144,-14.14139282,-2.811303864
-6.409521332,-2.724634094,2.122885437
-0.3743714905,0.6703060913,2.454445953
0.5339396667,3.41080719,-11.39729919
-0.6661148071,-2.467169495,1.340761871
-16.24362122,-6.144272919,7.995024261
-17.65144363,-2.817141724,-1.997745667
-15.01931717,-8.218808899,2.813249817
-9.743238831,-15.51373901,-16.41516449
-4.005370789,-5.087320862,-6.145919495
1.339564362,-0.7717950439,0.277073822
2.964136047,-2.688559113,-0.7735913086
-6.911876678,-19.91338989,-8.452323303
-37.30527328,-31.4021489,-2.594255219
-6.136788483,-1.778152313,0.9849517822
-1.514700165,0.1874102783,3.961811371
1.090931396,1.904339905,0.1734892273
0.1191522217,-2.300865326,1.334474945
-6.527176666,-3.444038086,2.538121948
-25.61862579,-6.20384903,5.681435394
-12.8172464,-5.705535278,0.886456604
-11.95204559,-12.38629257,-16.32999161
-5.683381348,-5.654042358,-4.467010803
0.9934840393,-0.6231541443,0.1817221069
2.981799316,-2.995121613,-0.4605921936
-7.755222931,-13.93587021,-5.930667114
-36.06600037,-26.17666534,-4.958139496
-6.951544189,-1.98217804,0.2833607483
-2.061962128,-0.3011737061,4.911286926
0.8701405334,1.611997833,2.136207733
-0.0940045166,-3.013832703,-2.640958099
-4.179159393,-1.159339142,18.80150208
-22.11935257,-5.535488892,4.3316922
-15.96325424,-9.774823151,2.555635529
-6.419999542,-3.663032684,-7.958051147
-1.669478302,-9.266180878,-2.006876678
-1.365759888,-5.874084778,-1.408870239
-2.887345734,5.769152985,0.7963439941
-7.538323975,-15.34773422,-2.130070496
-10.01342697,-27.32702316,0.3808081055
-4.817881165,-3.264261932,5.681734772
1.032253418,-0.1010398865,2.589914246
-0.6048921204,8.847800903,-6.588399353
9.133257294,-14.42580139,2.930156708
-24.09808777,-7.418872375,8.469238129
-2.730322266,-32.0630246,2.830014954
10.3342099,-12.33704498,-0.1353186035
0.4177812195,-2.630928955,-2.997965698
-3.432512054,-2.929408264,0.8931925964
-5.755231934,-18.54523499,-41.37276489
-2.761607208,1.333127747,-12.18331467
-19.93419662,-21.70531357,1.566492462
-16.41471542,-14.82262619,2.541864166
-9.697134705,-12.97322205,-1.140628052
-1.587448883,1.365610199,3.461551666
0.6524931335,12.41862534,-7.574997711
-1.143023071,-4.657863922,0.5116360474
-7.08132431,-14.18749695,6.572682037
-14.26398788,-15.92343704,4.758305054
-6.246061249,-3.050955505,0.3423381042
-11.73574539,-12.11221252,1.344504089
-6.524931335,-9.788295135,-11.33921997
0.444276123,-1.269809418,-0.603993988
2.916684723,-1.835333405,-1.297352142
-3.544778595,-9.18983963,0.07349716187
-36.21643753,-34.68197845,3.207978973
-9.793234863,-4.346361694,1.215023346
-2.689756622,0.02275268555,3.612587585
1.083297272,2.522105255,1.972298584
1.716779938,-0.460891571,-19.25580734
-0.725690918,-0.1407073975,-0.8313711548
-27.05728409,-11.39894577,18.19646027
-19.25131668,-6.235133972,-20.13028885
-13.02411621,-9.359287262,3.939358063
-9.810598755,-11.91177933,-3.543581085
0.6494993591,-2.421514435,-6.039490814
1.188678131,-0.7994874573,1.348845062
1.22505249,-3.918102264,2.820285187
-22.67290146,-31.04633881,-0.5502557373
-27.82384003,-12.87472687,-2.281106415
-6.470145264,-2.550995178,4.086951141
-0.3357518005,1.118324432,2.205812988
0.674197998,1.958826599,0.1486408997
-0.4176315308,-2.161056061,1.25199646
-4.869823151,-6.510860596,10.17179764
-23.73853546,-8.393495636,5.899232483
-14.91094254,-8.668623505,5.110522614
-10.18526962,-15.80144073,-18.96511185
-3.995191956,-5.015619965,-4.001329193
1.342707825,-0.3534150696,0.5222639465
4.481680298,-2.966531067,-2.490520935
-2.383792877,-8.28766571,-2.273771667
-41.85117004,-43.81942703,-5.129832458
-8.194709015,-3.088078308,-0.3460803223
-3.054997101,-2.313738556,6.31851059
1.056053925,1.86392395,2.349963226
2.374212799,-2.342179413,-8.688532104
-0.5807922363,-1.170865173,2.741099854
-25.98820724,-15.28097305,10.29828461
-16.22565857,-6.547234955,1.874851227
-11.89950485,-11.24356888,3.875890045
-8.180787964,-10.6620282,-2.715353394
1.1373349,-0.5185217285,-0.7779322815
2.399959259,-2.124082947,-2.006427612
0.5269042969,-3.270548859,3.301684113
-27.5349408,-33.13374802,2.74154892
-19.42375809,-6.777905273,-5.224735107
-4.41476944,-2.308499451,5.137915649
1.072369995,1.199455719,2.082170105
0.7355703735,2.030228119,-1.728755035
-0.06765930176,-1.506467285,-0.1820214844
-8.915909271,-3.222648468,9.51047287
-28.55192596,-14.9432753,7.64999176
-13.947995,-9.640702057,4.655019836
-10.32747391,-10.35516632,-24.38324478
-2.497107239,-2.336042175,-3.543880463
0.9978250122,-0.9198371887,0.1478924561
2.872077484,-4.539460144,0.9696835327
-11.86911804,-19.29682205,-6.860084381
-36.04309799,-24.56631409,-3.80044693
-5.61407547,-1.451381836,2.162852325
-0.7351213074,0.8108638,3.021317139
0.5028044128,2.122735748,1.620829468
0.7753875732,-2.787203979,-0.2426454163
-2.027833099,-0.6310876465,1.194515991
-33.84761353,-16.10815292,10.83671494
-14.05262741,-7.533234558,-4.267475739
-8.532107391,-14.27222076,-19.52749237
-5.82229248,-6.596332855,-4.937033386
1.295555878,-0.6397695923,-0.9048683167
2.69709137,-1.979333954,-0.706381073
-1.997745667,-6.855593719,0.4794529724
-32.07395187,-35.78189117,4.370162201
-8.796008606,-4.09533371,-0.6777905273
-4.595443726,-1.448837128,4.903353424
1.225501556,1.740730133,1.123413849
3.735482025,-2.423759766,-8.630153503
-0.7542814636,-2.574645996,4.353546753
-30.88227997,-17.39098526,10.53434372
-15.23277328,-4.682263184,-5.210514679
-13.24176361,-9.694889374,3.131488037
-10.47806076,-11.05017105,-2.466271362
1.255289612,-1.387913818,-3.844455414
1.379830627,-0.7530839539,1.178648987
2.357148285,-6.144272919,-4.350103912
-25.34888672,-29.12628159,2.063758392
-27.54107803,-14.22686508,-5.172044678
-5.586682434,-2.493215332,3.755540314
-0.09744735718,0.9409432983,2.774480438
0.4932243347,2.025587769,1.188079376
0.1228944397,-1.8991008,1.137783966
-4.869972839,-1.532213745,3.728596344
-28.95503769,-13.89784927,7.885901184
-14.03750885,-8.058492279,4.619693298
-10.19185593,-13.91596161,-14.58057953
-5.721252594,-6.961872711,-4.592300262
1.066681824,-0.6080355835,0.4522096252
3.623963928,-3.011587372,-0.8587641907
-5.149441681,-11.56360336,-3.195854187
-37.20872406,-39.80043457,0.8593629456
-8.101752319,-3.198398895,-0.6893165588
-3.339255981,-0.8270301819,5.151537323
0.9629475403,2.26763443,2.052082672
1.374292145,-2.982847137,-8.780740356
-1.013093262,-0.5128335571,-0.9562115479
-26.35838745,-13.29265778,15.77210175
-14.41292816,-6.060447235,-4.057761841
-13.96446075,-10.87398743,2.166295166
-10.11102402,-11.57512939,-3.943998413
0.7405101013,-1.063688049,-1.978735199
2.468516693,-2.142644348,0.103434906
1.533560944,-4.99975296,1.499132538
-28.61045425,-30.40776672,4.722978516
-17.26150452,-6.104006653,-3.862867126
-5.296585693,-2.11435318,5.29583725
-0.2062710571,1.063837738,2.68302063
4.879702606,4.822222137,-21.90439957
0.4056564331,-2.702629852,-0.5613327026
-18.34510117,-17.01451813,8.672365723
-22.93500641,-1.037941589,-11.50821854
-13.20673645,-8.10983551,4.500690765
-10.10518616,-16.74522812,-20.0765506
-1.815574493,-3.764072571,-4.593348083
1.392105103,-0.7223977661,0.6271957397
3.436104584,-2.499651947,-1.276096344
-7.315736847,-14.07448196,-6.809639282
-39.57290771,-41.90954865,-5.33789978
-7.121889954,-2.6210495,0.06062393188
-2.201022949,-0.5243595886,5.090464325
0.4013154602,1.813778229,0.6174659729
-0.2432441711,-1.7305513,-3.254083099
-1.181193695,-0.3260220337,0.6813830566
-28.85684189,-14.66964432,10.8955426
-16.60122757,-7.098688202,-6.33722168
-13.34654572,-12.89268951,0.8834628296
-6.644233246,-7.961793365,-6.200555878
0.9421408081,-0.855920105,-0.9931846619
2.732268219,-1.657652893,-0.8005352783
-1.037791901,-5.79774353,3.013084259
-31.55947174,-34.4836409,6.562652893
-15.06841507,-4.273762665,-2.309247894
-4.664749603,-1.419198761,5.345533905
0.2701881409,1.563947754,2.683769073
6.285878448,2.258503418,-29.11924622
0.06421646118,-0.8587641907,-0.1910028076
-14.08271484,-13.01842804,13.59053833
-21.34665939,-2.601589966,-5.041965179
-13.79815659,-10.18137772,4.257147217
-8.105943604,-14.42774734,-15.26809982
-2.244432678,-2.815046082,-2.544109497
1.215173035,-0.436791687,0.1649569702
2.802172852,-3.849694519,-1.993255005
-15.44667847,-21.28917892,-4.030817871
-34.50549545,-22.18865845,-3.212918701
-6.053860931,-2.899620209,3.429069214
-0.8696914673,1.33267868,3.204536133
0.5231620789,2.23949295,0.6604266357
0.8316705322,-2.80935791,0.6953041077
-1.858385468,-1.777703247,-3.008443909
-32.74500641,-18.30004486,16.59209656
-13.73109604,-7.797135773,4.002975769
-12.07928101,-11.93168793,1.851200409
-7.311395874,-9.688452759,-3.101250916
1.188528442,-0.6358776855,-0.3511697388
3.653751984,-3.144361267,-2.333647156
-2.909349976,-7.694149933,0.6653663635
-36.47779404,-39.80238052,-0.5460644531
-13.06752594,-4.261039124,-2.938838654
-5.137466583,-3.037782898,6.161936188
1.105900269,2.619253235,1.971101074
4.30938858,-1.658551025,-11.62931671
-0.4568499756,-1.384920044,-0.06316864014
-32.2621106,-14.77307922,16.65137329
-22.70433609,-4.994962921,-31.90166016
-14.56261688,-10.68912186,3.528911591
-8.398135986,-12.64046402,-4.84647171
-0.4119433594,-2.439926147,-2.420017548
2.369572449,-1.982028351,-2.174528046
1.88622757,-2.733765106,2.569406891
-20.77814163,-27.55619659,-7.431146851
-28.56240417,-17.15627335,-3.560795288
-5.266647949,-2.092498627,3.467239838
-0.7375163269,0.6170169067,3.812721405
0.5593867493,2.930306396,1.397643585
0.4101470947,-3.12415329,-0.2971321106
-6.784491577,-2.155816956,5.599705353
-32.10897903,-3.177292786,7.686815186
-14.8835495,-9.433532867,4.608766022
-7.365433502,-16.04109238,-19.78151413
-2.069745941,-6.011349335,-4.857398987
1.66618515,-0.863404541,-0.6149212646
2.882256317,-2.016756134,0.1043330383
-8.984616394,-14.95270569,-4.922812958
-42.00070908,-37.35616745,-5.185067596
-5.71706131,-3.052452393,0.4620890808
-3.088377686,-0.6709048462,5.34613266
0.7719447327,2.362686768,1.785187683
0.4647834778,-2.871778107,-3.680097198
-1.653910675,-0.7815248108,0.009280700684
-25.14710632,-15.12439865,13.38950638
-15.44787598,-5.520070953,-6.58869873
-16.61889084,-11.97824112,1.878743134
-8.148604889,-8.499624939,-2.493365021
0.7737409973,-1.001716919,-0.7554789734
2.714006195,-2.324516144,1.068178711
0.1974394226,-5.990243225,2.285447388
-30.97778137,-35.72366226,3.509152679
-21.06165207,-7.940537567,-5.327122192
-5.605243835,-2.580483856,5.946683807
0.419128418,1.770218811,2.407743073
5.863756256,4.311334534,-30.70968887
-0.2477348328,-2.175725555,0.3519181824
-11.84187469,-3.5102005,9.29986084
-26.95654358,-8.344846802,6.689289551
-13.92015289,-9.552086334,4.934488678
-8.191415863,-13.90248962,-19.92027557
-1.12446167,-1.91541687,-5.353617096
0.9160949707,-0.4285588074,0.4486170959
2.91114624,-3.734434204,-0.698896637
-15.91984451,-24.26768509,-4.516408081
-38.58870438,-29.00952438,-4.157604218
-5.540877686,-1.981878662,0.8375083923
-1.17011673,-0.1839674377,4.439168701
0.4724176025,2.512974243,1.972148895
-0.04281097412,-4.749473419,-3.962709503
-1.919159088,-0.4567002869,1.539548492
-29.43853226,-14.65751953,13.38381821
-17.15507584,-7.815248108,2.912792816
-12.31623825,-11.34700378,-0.03128494263
-6.816674652,-8.08768158,-3.552861786
0.7822732544,-0.3224295044,-0.1341210938
2.689157867,-3.12999115,-0.1850152588
-3.378923492,-15.53200104,-5.55210434
-35.4191954,-32.30686752,0.7963439941
-16.80570236,-2.573298798,-0.6478527832
-3.161725159,0.5972579956,3.86825592
0.7680528259,2.220332794,1.925446014
2.828218689,-3.033292236,-11.26826752
-0.3785627747,-0.9285191345,-0.5508544922
-29.32970856,-16.11668518,16.89356964
-20.68204147,-3.765120392,-12.40485397
-14.3129361,-10.89868607,2.147733765
-10.98939743,-11.63275955,-4.344864807
1.277892609,-0.4037104797,-3.927682343
1.789229279,-0.6589297485,1.731299744
2.829865265,-2.739453278,0.9482780457
-21.20310791,-33.88937668,-7.298372955
-26.62154022,-14.37445816,-4.200115814
-6.754104767,-2.655178528,2.101030884
-0.167202301,0.583636322,3.367696838
1.149908752,2.589165802,-1.234931946
0.1335223389,-3.134930878,1.295855255
-3.353925476,-2.212848358,4.219425659
-26.74293777,-3.601211243,-2.895877991
-10.17688705,-6.076164551,3.792812805
-12.39826767,-13.57721603,-19.27885941
-3.241359558,-3.726800079,-2.742746429
1.437161407,-1.059197388,-2.04414917
3.176394653,-3.243604889,-1.189725952
-9.596693573,-15.15343826,-9.381291504
-41.25630707,-40.03035645,-3.470083923
-7.44057724,-2.339335327,0.06242019653
-2.221829681,-0.3761677551,4.792733459
1.17355957,2.038760376,1.302441559
0.7005432129,-3.106040955,-5.104085999
-0.6932084656,-0.1272354126,-0.6854246521
-33.48746246,-16.57892395,12.83101776
-12.17388428,-1.940714264,-17.91624298
-15.40057434,-10.78237793,2.229912872
-9.874515839,-9.976902924,-2.954705658
0.9431886292,-1.882485352,-4.067641296
2.00088913,-1.431922302,2.163301392
-1.021625519,-7.307653656,-1.733844452
-26.80865112,-29.39153,2.897823944
-20.44463516,-7.149732056,-3.846551056
-5.196144562,-2.311343536,5.147944794
0.2074685669,1.170565796,2.914140015
4.762945404,5.698050842,-27.26310608
-1.564995575,-4.51655777,-3.76886261
-19.83255798,-6.648574219,12.47445923
-23.13229614,-3.315904541,-0.490380249
-16.2358374,-10.20996826,4.521497498
-7.69684433,-15.25687317,-21.5681987
-1.463057556,-3.250939636,-2.858755188
1.861977997,-2.136207733,-1.836381226
2.788551178,-2.828069,0.3143463135
-16.70346497,-22.77439041,-11.58890076
-40.15145462,-29.98848862,-5.135221252
-6.699318695,-1.94939621,1.336869965
-1.962568817,0.8548722839,2.792143707
0.5373825073,1.73638916,-0.06242019653
0.2167492676,-2.551593933,0.8059240723
-3.152594147,-2.226320343,-2.349813538
-21.54005722,-9.052575073,6.287674713
-15.01018616,-4.951403503,-3.113675079
-14.42011322,-11.08983856,0.3781137085
-7.266638947,-7.001091156,-3.879033508
1.012195129,-0.9849517822,-0.5968089294
2.464774475,-2.010618896,0.6695576477
-1.997745667,-6.295608215,1.075513458
-31.33823181,-34.01272018,3.027903442
-15.40072403,-5.699248352,-1.860630798
-5.886359253,-1.460961914,6.023324432
1.13149704,2.479893036,0.943787384
3.079546051,-0.03338058472,-8.312663727
-0.2017803955,-3.2341745,2.064955902
-23.89046951,-11.864328,11.63665146
-25.55904968,-4.014651489,-6.474635925
-14.42625046,-8.506211243,3.650309143
-9.197922821,-13.11228287,-17.24863129
-0.7849676514,-2.722239075,-4.052822113
1.432970123,-1.321152649,0.9184899902
2.458038483,-3.343297577,-0.7984396362
-14.85421051,-22.53848099,-1.349443817
-35.76811981,-27.79300415,-5.719156952
-7.370971985,-3.339555359,0.8692424011
-2.123184814,-0.1863624573,5.199737091
0.9154962158,2.896327057,0.9153465271
0.6789880371,-2.17871933,1.0577005
-4.059558105,-2.675835571,3.76062973
-24.13461182,-13.77705048,6.243965607
-13.86536682,-6.72686142,3.298540649
-12.67399429,-12.51098328,0.519868927
-7.831863556,-9.003926239,-1.52817215
1.148112488,-0.8238867188,-0.8054750061
3.315455475,-2.928959198,0.1814227295
-1.430275726,-6.920708313,3.842060394
-33.6250264,-37.33386383,3.292852478
-12.5133783,-3.181334381,-0.4197271729
-4.280798035,-0.7035369873,4.834945679
1.115031281,2.358794861,1.853595428
3.634142761,-2.270777893,-13.23113571
0.3986210632,-0.9222322083,1.039139099
-33.35019791,-16.2265567,12.16415451
-17.53229141,-1.827848969,-14.78250961
-14.79897537,-10.53045181,3.840563507
-9.678722992,-13.49922821,-8.128845978
1.350491638,-1.118324432,-4.30714325
1.296903076,-0.4031117249,1.318458252
2.727627869,-3.631298676,-2.184856567
-20.85044128,-25.9569223,-0.3824546814
-34.94213745,-21.86098984,-3.729195099
-6.435716858,-1.404678955,4.033661957
-0.1767823792,1.900447998,4.032614136
0.8487350464,6.676116943,2.994373169
-1.068777466,-7.337292023,-8.424481201
-3.848646698,-0.3917353821,7.935897217
-30.88003464,-12.90376648,13.32918182
-16.79223038,-8.694968719,4.633913727
-7.468269653,-11.12815887,-24.62529144
-4.05791153,-4.810396729,-4.739893341
0.8391549683,-0.4725672913,0.04355941772
1.546134796,-1.491947479,0.980760498
-15.18891449,-21.76848221,-12.23286163
-36.17781784,-29.46472778,-4.9249086
-7.276219025,-2.836002502,0.6176156616
-2.240989838,0.08472381592,3.67875
0.6921606445,1.652264099,0.882714386
0.02859054565,-3.307971039,-2.239642639
-1.859433289,-0.7934999084,-0.0672102356
-25.58105392,-11.96596664,9.804611206
-13.91356659,-6.23543335,1.438807983
-14.66440521,-11.64263901,2.031575317
-9.238488464,-11.13220047,-3.78053833
0.9150471497,-0.6469546509,-1.291963348
3.142265625,-2.856809235,-2.943029938
-0.8202941895,-4.97759903,2.249671783
-32.10164429,-34.72359192,4.74004303
-13.62511642,-4.674030304,-1.942809906
-6.04113739,-2.458637238,5.703289948
0.645308075,2.264790344,1.701362
3.955524445,2.148482208,-13.16018326
-0.6682104492,-3.699107666,-1.062340851
-28.31032837,-10.08812164,13.99424881
-21.52553741,-8.260721741,-32.2886055
-15.62495773,-9.752818909,4.053869934
-9.143436127,-15.74246338,-15.17664001
-1.203197937,-2.26883194,-2.648592224
1.098116455,-0.5316943359,-0.4595443726
2.858755188,-2.548899536,0.5020559692
-14.30739761,-21.17511612,-9.020391998
-39.54955627,-34.61117569,-3.438050537
-7.259603577,-1.671573944,0.1489402771
-2.238145752,0.212258606,4.422253876
0.757275238,2.261197815,1.181493073
0.4158352661,-2.998564453,-1.091829529
-1.787582703,-0.6987469482,-0.7976911926
-29.72353958,-13.75055557,12.83041901
-14.93623993,-6.52088974,3.655248871
-14.83549942,-12.18645813,1.846859436
-7.007827148,-8.278534698,-5.078489227
1.119372253,-0.4273612976,-0.5230123901
2.92282196,-2.427052917,-0.2264790344
-0.9401948547,-5.127437439,1.139430542
-32.26166153,-38.05730942,0.2893482971
-13.35103638,-5.698050842,-3.135529633
-4.660708008,-1.306183777,5.18461853
0.4793032837,2.481539612,5.125790863
6.987469482,1.859882355,-30.59936829
-0.4445755005,-1.833088074,-0.903072052
-20.29045578,-8.802744598,11.43232635
-22.85043228,-4.229305115,0.6917115784
-15.5285582,-10.43764481,4.957989807
-9.364376678,-11.9054924,-10.82683548
-0.4572990417,-1.430874481,-4.45683197
1.041983185,-0.2583627319,1.051413574
2.974165192,-3.02236496,-1.983674927
-19.29008606,-26.83529572,-8.681047668
-32.29608994,-22.67260208,-3.163671112
-5.409001923,-1.446891174,2.583627319
-1.247655487,0.5963598633,4.899461517
0.4448748779,3.317401428,2.471660156
0.4908293152,-3.691323853,-1.171613617
-1.050964508,-0.9958790588,2.072889404
-25.7605307,-13.74007736,11.66748734
-15.13008682,-7.039112091,3.499123535
-14.07582916,-13.79875534,1.77156601
-7.815248108,-7.643405457,-5.757477264
0.9433383179,-0.3653901672,-0.1016386414
3.617078247,-3.283571777,-3.568130035
-2.504441986,-6.995253296,0.9162446594
-34.85142609,-37.74251404,2.657573547
-13.84366196,-3.617227936,-2.914140015
-4.076173553,-0.6283932495,4.862039337
0.8205935669,1.582060089,2.020049286
3.782783661,-0.2109114075,-21.49275558
-0.1188528442,-1.380429382,0.8390052795
-39.44761826,-15.8708963,14.33658691
-18.25229416,-4.278852081,-4.342619476
-15.85188583,-11.75400742,2.570903778
-8.768316193,-10.79854431,-4.991071014
-0.1113684082,-1.463057556,-2.432142334
1.465901642,-0.9322613525,0.8270301819
2.42914856,-3.414848785,0.3983216858
-19.77088623,-27.26639923,-4.109404449
-28.15839432,-16.82097061,-5.286855927
-5.222340088,-1.986519012,3.970343628
0.1097218323,0.6638694763,1.944755859
0.872535553,2.129920807,1.481169891
0.5165757751,-1.750010834,1.115929413
-5.854325867,-2.718945923,5.05588623
-29.27626968,-12.77563293,7.338489532
-13.83348312,-6.984176331,4.514911194
-11.17246674,-12.01446579,-22.89249481
-2.576142883,-3.913461914,-3.230432281
1.121617584,-0.5658233643,0.1035845947
3.518134003,-3.339255981,-1.472188568
-11.84801193,-18.58774658,-11.16992203
-39.2904451,-28.55731476,-4.461322632
-6.477330322,-2.324067078,2.28514801
-2.382445679,-0.01841171265,4.956043854
0.6261479187,2.037263489,1.837129669
-0.220790863,-3.786226501,-1.93772049
-0.7981402588,-0.1844165039,-1.411564636
-31.29048111,-15.46030014,14.89806931
-15.79590225,-7.344327393,0.3764671326
-14.80077164,-11.61030624,1.77500885
-8.184530182,-8.016130371,-2.399360504
1.05186264,-0.5260061646,-0.1932481384
1.965412903,-1.375190277,1.87679718
-0.1944456482,-6.324797516,1.715283051
-33.86228302,-35.75120499,1.449585571
-13.35522766,-2.137255554,-1.649120636
-4.781506805,-1.037642212,5.528303833
1.056353302,2.401605835,2.34487381
2.287093964,-1.934577026,-12.57789413
-0.209564209,-1.772763519,0.2423460388
-34.47780304,-13.60565689,14.46621735
-20.69641159,-1.227297821,-12.90002426
-15.78228058,-11.2658725,3.39329361
-9.6520784,-12.8849057,-5.057832184
1.256487122,-1.541793823,-3.168461151
2.042801971,-3.020119629,-0.2008822632
2.279609528,-3.153192902,1.008153534
-20.24195663,-25.02301437,-6.312672729
-31.85106537,-17.74275375,-5.065615997
-5.256918182,-0.9590556335,3.025508423
-0.1528321838,1.394200745,2.660118256
0.9039701843,3.447630615,1.99026123
0.4813989258,-5.105283508,-1.887425079
-3.116818542,-1.112336884,5.102289734
-28.41585892,-2.667303314,-2.433190155
-15.73228455,-6.718029785,4.498595123
-12.77383667,-12.51218079,2.182012482
-6.681655426,-9.747579803,-4.37959259
1.252146149,-0.1960922241,-0.2712359619
3.285068665,-2.120340729,-1.495540009
-0.6186634827,-4.278702393,2.988086243
-35.81108047,-38.43497406,3.804039459
-11.40957367,-2.823728027,-1.909728699
-3.850592651,-0.7592211914,5.458548889
0.7098239136,2.584375763,3.506907349
3.081192627,-4.281995544,-16.23673553
-0.4433779907,-0.2185455322,-0.4360432434
-29.44826202,-13.14970505,15.06616974
-17.43199997,-4.057312775,-35.30483322
-15.42018356,-11.09702362,2.75442215
-10.08797195,-11.70850204,-8.659342804
1.291214905,-0.8131091309,-4.513713684
1.60062149,-0.825383606,1.774709473
2.340682526,-4.236490173,1.319356384
-19.86668701,-28.97779037,-4.05671402
-26.47394714,-9.53741684,-3.237018585
-6.542594604,-1.496887207,3.471431122
-0.09954299927,1.818418579,1.988165588
4.750820618,5.881718903,-19.80172211
0.8331674194,-3.531755676,-1.558259583
-2.421813812,-0.9743238831,3.804638214
-26.62767746,-12.48538651,7.776478729
-18.0553038,-8.11223053,3.337160339
-9.821376343,-13.39564362,-16.83489166
-2.736609192,-3.688779144,-2.375410309
1.127455444,-0.7824229431,-1.229692841
3.880530396,-3.879931641,-1.541644135
-7.600145416,-12.81170792,-6.270759888
-37.80089264,-41.19403656,1.159488831
-9.024732971,-1.730102234,-0.9226812744
-3.376528473,-0.7614665222,6.20968689
0.9005273438,2.812201996,2.432441711
1.23912323,-2.007774811,-4.17601593
-3.017874298,-0.9409432983,-9.92002121
-25.5614447,-14.29676971,18.88278305
-19.11779434,-7.882757721,-29.60887802
-13.43905334,-9.948611755,1.567390594
-9.819280701,-10.91200836,-2.739453278
0.9280700684,-1.02147583,-2.128723297
2.662064209,-2.394720154,0.2655477905
-1.394051056,-5.313051453,2.236499176
-31.69793381,-33.12312012,3.306174774
-14.52324875,-4.258793793,-4.182751923
-4.123026123,-1.391955414,5.220843201
0.4477189636,1.348994751,2.022593994
5.292394409,4.728217621,-23.63420242
-0.6240522766,-2.293081512,0.8593629456
-26.70880875,-11.94845306,10.56068893
-20.97647919,-4.21343811,-2.508034515
-15.45176788,-10.45545776,3.156635742
-13.16437454,-11.56989029,-6.968009949
-0.3218307495,-1.822160797,-2.699486389
1.382075958,-0.9560618591,0.826431427
3.730093231,-4.099524994,-0.936302948
-17.90172318,-25.90333374,-13.73214386
-32.76177155,-22.44881744,-2.564167786
-5.96973587,-0.7939489746,1.359922028
-1.750908966,0.6557862854,5.213358765
0.0975970459,3.057242432,3.351231079
0.962049408,-3.597019958,-2.241289215
-1.839973755,-0.4409829712,0.7577243042
-29.72518616,-15.25313095,9.089697876
-16.41291916,-9.387129364,3.822600861
-11.30494125,-10.97233292,-1.436712341
-4.850962372,-4.816833344,-4.604724426
0.7084767151,-0.08696914673,0.2369572449
2.403102722,-2.123035126,1.60541153
-4.717589722,-9.347012787,-3.089275818
-40.45322708,-39.42351837,-0.619561615
-9.170529785,-2.506387939,0.2137554932
-2.687211914,-1.164428558,6.486461334
0.7327262878,2.115850067,2.761307831
0.7319778442,-2.610122223,-8.694220276
-0.7876620483,0.2119592285,-0.6900650024
-36.74409027,-15.90831848,22.69475601
-16.54913589,-6.204148407,-53.07617752
-14.60497879,-9.993518372,2.439177704
-8.37433548,-9.141041107,-1.284478912
1.452429657,-1.418600006,-4.198768616
2.382745056,-2.452350311,0.07604187012
-3.484753418,-8.621920624,-1.187181244
-33.31861359,-34.66266861,3.057841187
-13.23697357,-4.059408417,-1.554367676
-5.082081757,-2.013912048,6.40742569
1.234033813,2.255060577,2.593656464
5.628595276,3.109783173,-21.20415573
0.1818717957,-1.196162567,-0.623303833
-15.5776561,-5.744304657,12.21430023
-22.53773254,-0.1395098877,-13.5245256
-14.24812088,-9.007219391,3.880680084
-9.34192337,-12.31923203,-21.04788071
-1.291514282,-3.284020844,-3.865411835
2.510728912,-1.849553833,-0.6930587769
1.625469818,-3.398832092,1.550625458
-21.38887161,-26.1161911,-4.045187988
-33.53895538,-22.95476532,-3.57112381
-5.622158661,-2.279160461,2.356699219
-0.5156776428,0.6529421997,3.529360657
0.7764353943,2.428998871,1.600322113
0.07439529419,-2.842738495,-1.547182617
-2.542313232,-0.425565033,4.276007996
-30.40312637,-13.96056885,12.47056732
-16.90060501,-8.655301208,5.262756042
-12.03766754,-11.77451477,1.217418365
-4.515959015,-5.483097839,-2.549198914
1.01099762,-0.6230044556,-0.06825805664
3.166515198,-3.108435974,-1.162781982
-7.528444519,-13.13054489,-5.579497375
-40.25309326,-34.37526627,-3.69746109
-9.014703827,-2.210153961,-0.4501139832
-2.946023712,-0.6659651184,5.750591583
0.6968009949,2.259700928,2.295626221
0.5637277222,-2.581831055,-0.6867718506
-1.000818787,-0.5556445313,-0.3668870544
-30.65714813,-15.29968414,13.78453491
-18.44629074,-6.018684082,-0.1755848694
-12.91619064,-10.50231033,2.638712769
-6.759792938,-8.90198822,-2.18919754
1.090931396,-0.7062313843,-1.02387085
3.066223755,-2.528242493,-3.119363251
-1.902843018,-6.393205261,3.183729401
-38.7449794,-38.91502579,1.706152039
-12.33914063,-4.936434631,-3.217259674
-3.744613037,-1.077758789,5.423222351
1.128353577,1.955832825,2.449206848
5.322032776,-0.04580474854,-26.77377365
-0.3282673645,-1.102457428,0.6396199036
-32.56957123,-14.11459854,14.24422897
-19.36328384,-3.285068665,-24.57694199
-12.94762527,-8.777896271,2.863694916
-11.22171432,-12.71890091,-4.113895111
-0.08547225952,-1.982776794,-2.837050323
2.251018982,-1.354084167,1.708397369
3.241658936,-6.472240906,-3.12879364
-20.48804489,-27.33839951,-4.186793518
-30.24939606,-15.81476303,-4.382885742
-5.25602005,-0.7479945374,2.938988342
-0.4827461243,1.634451141,4.020339661
0.872535553,3.289858704,2.028731232
0.1166075134,-3.080144806,-1.324146423
-6.581513672,-1.778302002,3.007994843
-26.79368225,-12.02883591,7.126230927
-16.22984985,-9.974358215,4.708758087
-9.404942322,-11.41077118,-15.70279587
-2.891836395,-3.152145081,-3.932173004
0.8412506104,-0.5158273315,0.3851490784
2.211201782,-2.309098206,0.009430389404
-11.87091431,-16.63565598,-5.154980164
-42.54392944,-35.26456696,-2.52734436
-5.807323608,-1.227597198,2.38693634
-2.014959869,0.4695735168,4.851860504
0.53004776,2.293530579,2.126477966
0.5909710693,-3.185375977,-1.329086151
-1.759141846,-0.7161108398,-4.4497966
-32.02994339,-14.93384491,14.71455093
-17.9213324,-6.506519623,0.7032376099
-11.21093674,-8.870703278,1.734592896
-6.120322723,-6.732399902,-0.9837542725
1.069525909,-1.100511475,-1.305585022
2.039359131,-2.00672699,0.7951464844
-8.924890594,-13.0654303,-5.680387573
-40.20160034,-37.02595413,0.8095166016
-9.107061768,-1.578168182,0.7503895569
-2.664608917,-1.508562927,6.960974579
1.120270386,1.855691071,2.708467712
2.68182312,-4.253704376,-10.36250107
-0.4463717651,0.1579216003,2.654430084
-35.84341324,-15.21645721,14.39930649
-15.62346085,-4.956792297,-12.6898613
-13.09297302,-9.289382629,1.959425354
-10.10668304,-9.591454468,-3.614832916
1.215173035,-0.3312611389,-0.7054829407
1.522933044,-1.267115021,1.884131927
-1.460512848,-8.221503296,-0.9476792908
-33.55961243,-32.73153442,1.388362885
-19.22976151,-4.047133942,-5.026397552
-5.054838409,-2.390079803,6.958579559
1.079704742,1.964215393,3.238365784
6.728957062,3.835623779,-30.4890477
0.7946974182,-2.145638123,0.48559021
-14.79538284,-3.73488327,12.06730591
-33.76244064,-3.462000732,-9.780361633
-12.61531631,-6.832541656,5.31335083
-10.83461929,-17.49142639,-21.77776291
-4.020639038,-4.669689331,-3.785777435
1.628613281,-0.8786727905,-0.1489402771
3.180436249,-4.884792023,-1.059646454
-15.80084198,-19.95874557,-7.433242493
-43.53636566,-31.39436508,-5.524112549
-5.184768219,-1.433868256,3.223845978
-1.779349823,0.8684939575,3.544329529
0.7623646545,2.312690735,1.701062622
0.4963677979,-2.896925812,0.2091151428
-2.479743347,0.01691482544,-4.802612915
-26.65611832,-12.52595215,8.103398895
-16.4668071,-9.260492706,3.76422226
-13.53066284,-11.77915512,1.373543701
-7.451504517,-8.312364349,-6.060746613
1.34794693,-0.3670367432,-0.7849676514
2.852168884,-2.625989227,-1.145118713
-2.325713654,-6.804998932,2.595901794
-37.39329025,-38.88478867,2.059417419
-12.22986786,-3.357068939,-3.23058197
-4.174369354,-1.140029297,6.570736084
1.756447449,2.78241394,2.169438629
2.033221893,-3.935765533,-7.54700592
-0.2803669739,-0.8571176147,0.5051994324
-31.51725952,-15.16795807,13.88003632
-15.08383301,-3.816463623,-5.85043396
-14.71440125,-9.082961884,2.635419617
-12.09889023,-12.86484741,-4.860692139
1.448388062,-1.897005157,-4.18769165
1.854493561,-1.280437317,0.398770752
0.8870553589,-5.536536713,1.707648926
-22.20183105,-23.56399841,2.04414917
-32.16032227,-18.02162384,-5.901477814
-6.192921753,-2.006277924,4.643044739
0.720302124,2.150278473,2.091600494
1.688788147,3.07385788,-1.442101135
0.4622387695,-3.771407318,-0.04475692749
-2.890638885,-1.582209778,4.19352951
-34.05148956,-11.57018967,8.87983429
-11.95204559,-7.308701477,4.836891632
-9.353150024,-13.84770355,-15.33426224
-4.137246552,-5.173242188,-3.882775726
0.8479866028,-0.6237528992,-0.08412506104
3.082839203,-4.017046509,-1.73519165
-9.152866516,-14.19572983,-4.064797211
-42.43720139,-37.43819687,-3.272943878
-7.732919312,-2.313139801,0.7099736023
-3.762725372,-0.7447013855,5.774990845
0.8445437622,3.178340607,1.744322662
1.674867096,-3.544030151,-3.550317078
-0.06840774536,-0.3870950317,-0.375718689
-33.11204315,-19.80262024,16.71304504
-14.85989868,-3.417243805,-2.317480774
-14.49241287,-8.823701019,2.184257813
-11.47139511,-12.51831802,-1.69657196
1.033899994,-2.147284698,-3.924987946
3.074606323,-2.378553772,0.8702902222
2.063009949,-4.659959564,1.238973541
-31.51471481,-34.59860184,6.796017609
-25.33361847,-10.19904099,-5.81061676
-5.78022995,-2.428699493,5.726042633
0.8334667969,1.275647278,2.348017273
5.361400909,5.030738525,-17.15043549
0.6358776855,-2.588567047,1.027164001
-6.579717407,-2.291434937,5.861211548
-28.1107933,-0.4430786133,-18.13389038
-12.45485001,-7.575446777,4.172872467
-8.976084137,-15.30866547,-22.05289078
-1.816772003,-2.523003387,-3.057691498
1.542841644,-0.9479786682,-0.56866745
2.827619934,-2.268682251,0.6869215393
-11.57677597,-16.98727478,-8.474327545
-37.63967789,-29.9343013,-3.960164795
-7.519163818,-1.100661163,1.123713226
-1.491199036,1.429078217,2.808759155
0.6150709534,1.578766937,-0.0477507019
-1.667232971,-2.25356369,-1.861079865
-2.435734863,-1.058598633,0.03712280273
-22.4812999,-7.444618835,8.35442688
-15.02350845,-10.1285376,-6.523883514
-12.57055939,-11.72317154,-7.35046463
-6.983427887,-5.866600342,-4.550836487
0.8048762512,-0.6020480347,-0.07888595581
1.515897675,-1.679956512,1.883533173
-3.838916931,-10.21969803,-3.401526489
-35.11248322,-34.88450729,1.747017059
-12.68761597,-2.510728912,0.6471043396
-3.352129211,0.1645079041,4.963977356
1.08584198,2.435585175,2.772833862
4.887037354,-2.277064819,-11.19087845
0.1444496155,-1.144819336,-0.7650590515
-23.07601318,-11.57752441,13.78812744
-20.21695862,-1.768572235,-19.00073776
-14.64240097,-7.913593597,3.323388977
-9.577982483,-11.17635864,-18.88008865
-0.1371148682,-2.525548096,-3.949686584
1.315614166,-0.5842350769,1.147364044
3.037034454,-5.573360138,-2.715054016
-17.06122101,-24.98903503,-2.865790558
-30.51075256,-20.19869659,-3.647614746
-7.312892761,-1.318757629,1.797911224
-1.262923737,0.5710624695,5.276677094
1.293609924,4.382137299,3.249891815
0.9503736877,-4.703668671,-1.647923126
-1.611548767,-0.1080752563,1.085692291
-32.30222717,-14.49929855,9.697583771
-17.77778091,-9.537716217,4.332440643
-9.674831085,-11.36062546,-6.916217651
-3.998784485,-5.04540802,-5.875881042
1.434766388,-0.8414002991,0.3095562744
2.069296875,-1.892664185,0.272283783
-10.90901459,-17.19444397,-8.711883545
-37.42936523,-28.50686966,-4.44755127
-6.934180298,-3.042722626,0.2636018372
-2.052082672,-0.0643661499,4.387077026
0.9497749329,2.05238205,1.854194183
0.3227288818,-4.078269196,-3.034639435
-0.852177887,-0.1700463867,0.7089257813
-35.87544662,-15.78003525,11.96701447
-15.68004318,-6.308182068,1.709145813
-14.1443866,-12.17403397,2.229763184
-7.645201721,-8.665929108,-3.953877869
1.601669312,-0.3535647583,-1.569635925
3.660487976,-3.543730774,-2.859503632
-1.539398804,-5.864804077,0.8054750061
-34.69619888,-34.9945285,2.229314117
-13.28322739,-3.440295868,-4.263434143
-5.037474518,-2.022893372,5.788762207
-0.02634521484,1.447040863,2.347717896
5.755082245,4.378095703,-23.65231476
0.180075531,-1.141226807,-0.3793112183
-32.54038193,-15.30237854,12.461586
-21.01060822,-5.576353912,-7.11874649
-13.33756439,-10.17943176,3.266207886
-11.35508698,-12.3102507,-16.31906433
-1.044078827,-2.49111969,-2.186652832
1.56319931,-1.167422333,0.2158511353
3.47053299,-3.027604065,0.3791615295
-17.20986191,-29.55484039,-13.66179016
-33.97230423,-25.40172684,-2.41852066
-4.79033844,-1.196012878,2.039059753
-1.927691345,0.3122506714,5.565426636
0.3523672485,2.221081238,3.730392609
0.2056723022,-2.971620483,-1.129401398
-1.580712891,-0.3993695068,0.5373825073
-30.47228256,-14.06789566,10.99403778
-17.37601639,-7.948171692,-0.2398013306
-12.44377304,-10.20248383,0.5071453857
-5.520819397,-5.815406799,-2.225272522
0.9801617432,-0.4743635559,-0.426612854
2.787802734,-2.15417038,-0.7164102173
-8.021070099,-12.246633,-5.541027374
-39.36409195,-39.56976425,1.45437561
-7.546107788,-1.597028961,0.7665559387
-3.058439941,-0.7863148499,6.256689148
1.178199921,2.86908371,3.284170532
0.3493734741,-3.983965302,-8.230634308
-1.281784515,0.187559967,-0.9247769165
-30.45297272,-13.03743851,18.68998398
-18.45542175,-9.043743439,-2.557731171
-13.1437175,-9.804910583,2.479743347
-7.813900909,-8.151748352,-1.490749969
0.7511380005,-0.7957452393,-0.4998106384
2.220332794,-2.497705994,1.200204163
-2.655777283,-7.927664337,1.774110718
-36.61969894,-35.07131882,0.8391549683
-13.66613113,-3.379073181,-2.359992371
-3.695814514,-0.8146060181,5.729186096
1.297352142,2.060764618,1.956581268
4.979395294,3.99698822,-24.94337997
-0.3442840576,-2.34247879,0.5513035583
-35.66303833,-12.96244446,15.9240358
-23.38931168,-4.863087158,-32.34878036
-15.76536575,-11.25314896,3.25632843
-9.030121765,-11.94186676,-3.780837708
-0.2634521484,-1.533111877,-2.297721863
1.776954803,-1.852397919,-0.8256829834
0.800684967,-2.901266785,1.745071106
-15.10059814,-20.32293823,-2.334545288
-36.6017363,-10.38270905,-3.417992249
-6.169720001,-2.572101288,3.671265564
-0.8158035278,0.7794291687,3.935615845
1.999841309,3.998634796,-7.499853973
0.190254364,-4.977299652,-0.1462458801
-1.895358582,-0.7934999084,-0.0375718689
-35.46155731,-13.86177429,9.144633636
-13.53215973,-6.776857452,4.297263794
-15.39338928,-12.0382663,0.5137316895
-4.775668945,-5.110223236,-6.407575378
1.267863464,-0.3143463135,0.9151968384
2.613565063,-1.723815308,1.805844727
-2.47360611,-6.762637024,-1.734592896
-48.60841827,-34.48408997,-2.330204315
-8.065677338,-1.815275116,0.09879455566
-3.117417297,-0.7096742249,6.331683197
0.6411167908,3.306923218,4.507426758
-0.4270619202,-4.864284668,-12.65483414
-0.6162684631,0.710123291,1.433269501
-33.76708099,-13.41929443,17.80442551
-18.21741669,-5.1518367,0.05718109131
-13.7050502,-10.9486821,3.772155762
-9.336833954,-14.77502518,-6.49514328
0.8132588196,-0.9252259827,-0.4107458496
2.442171478,-1.000519409,0.9821076965
1.476080475,-5.913303223,2.559527435
-30.15015244,-33.35094635,0.8168513489
-24.39102859,-9.615554352,-6.16403183
-5.072501678,-1.540446625,4.962181091
0.3284170532,1.95987442,3.222947845
0.9009764099,4.009113007,-0.2192939758
-0.2086660767,-3.398532715,-3.290756836
-22.4799527,-9.529483337,13.26257034
-27.03917175,-9.828561401,6.978937225
-15.72854233,-9.226812744,4.727020111
-7.566615143,-11.93438232,-18.96406403
-1.446442108,-3.516337738,-6.25294693
1.770069122,-1.254840546,0.4334985352
2.44785965,-4.474794617,-0.8860075378
-22.37202713,-28.27200806,-2.146685944
-30.49892715,-12.98295181,-3.664230194
-5.413342896,-1.156345367,3.964805145
-0.06062393188,1.532213745,2.207160187
0.8422984314,1.968706055,1.03554657
-0.5939648438,-2.517315216,1.63340332
-13.02082306,-2.424508209,5.940097504
-22.97617081,-12.32027985,-2.283202057
-9.322314148,-8.947044525,4.594844971
-14.33209625,-19.40280167,-10.50919601
-5.713319092,-8.531358948,-6.730753326
1.51410141,0.320483551,-1.199605408
2.269580383,-2.490970001,0.3724255371
-17.74664566,-18.71662857,-9.751920776
-33.80450317,-24.4625798,-5.281018066
-5.425317993,-1.785187683,-0.05703140259
-2.467019806,-0.3459306335,6.321654053
1.01683548,2.875670013,3.900438995
0.3026705933,-4.793930969,-6.055657196
-3.178639984,-1.217418365,2.820434875
-22.36499176,-3.236120453,2.83046402
-13.48321152,-6.297254791,4.140839081
-11.24476639,-13.89171204,-8.61772934
-4.921316071,-6.95259201,-6.256240082
1.533710632,-0.7481442261,-0.8705895996
3.126398621,-2.77193573,-0.5044509888
-5.754034424,-9.499994659,-3.513493652
-41.48203766,-35.19196793,3.855083313
-6.457421722,-1.77500885,1.182091827
-3.529660034,-0.45984375,5.129982147
0.8150550842,2.32257019,2.473456421
0.09295669556,-5.130131836,-7.701784058
-0.9479786682,-0.122744751,-0.9885443115
-28.93947006,-11.4475946,17.02888824
-14.79268845,-8.894653473,-24.95864822
-14.6566214,-9.303752747,2.793341217
-9.607770538,-8.231233063,-1.429676971
0.693507843,-1.545835419,-2.44785965
1.451531525,-1.769470367,1.312171326
-5.384602661,-9.804611206,-5.312901764
-35.26142349,-32.03413467,3.07849823
-14.34781357,-4.295168152,0.009729766846
-4.454736328,-0.6668632507,5.110073547
0.7182064819,2.146386566,2.173330536
4.543651428,2.562221832,-24.72288849
-0.4308041382,-0.8798703003,-0.7087760925
-12.72144562,-2.682721252,13.27798828
-34.67419464,-10.77369598,9.469009094
-14.27207108,-8.70080658,4.081861725
-7.797884216,-11.26123215,-14.55198898
-1.274898834,-2.783461761,-4.734354858
1.654060364,-1.512754211,-1.046773224
-0.6252497864,-5.942193146,3.103795624
-23.83927597,-26.31677399,5.1226474
-26.83170319,-9.329798584,-0.5945635986
-5.285059662,-0.3899391174,3.451223145
-0.4834945679,1.891316986,1.599423981
3.282673645,4.230053558,-10.66711761
-0.1266366577,-2.971321106,1.864373016
-29.84224274,-12.32656677,14.56396408
-23.87894348,-15.05643997,-9.282946014
-13.5365007,-12.42371475,3.249592438
-6.753206635,-13.44040054,-8.2280896
-3.254681854,-2.63272522,-2.624043274
1.335971832,-1.491498413,-4.135599976
-0.6976991272,-3.375181274,2.719694366
-20.16741165,-26.07038635,-4.687053223
-26.93528778,-12.0674556,-1.401984558
-5.214107208,-1.725012817,4.455784149
-1.486408997,1.082548828,3.208577728
0.3680845642,2.526895294,1.480720825
-1.408570862,-6.350543976,-6.395300903
-2.19279007,-0.4902305603,6.038143616
-23.70201141,-8.461154938,9.21558609
-14.416371,-8.251890106,4.549938354
-12.737612,-9.785900116,1.44509491
-6.707401886,-7.681276703,-4.834646301
1.106349335,-0.3562591553,-0.629740448
2.17991684,-1.690135345,-1.434766388
-11.3984967,-11.98003738,-11.24297012
-40.30847809,-36.69274704,-1.209035797
-9.537267151,-4.426894226,1.472787323
-3.831282806,-0.6023474121,6.079457703
1.427880707,3.776197357,2.090402985
4.225263519,-1.034199371,-8.711135101
0.3927832031,-0.8418493652,0.1416055298
-28.12920502,-14.90016495,23.20160202
-18.91751083,-5.368136902,-1.930236053
-12.60289215,-8.859626312,3.391647034
-8.2771875,-15.70354431,-14.33509003
0.04505630493,-1.294807434,-2.185305634
1.569935303,-0.8300239563,0.9349557495
3.335513763,-5.40226593,-1.54568573
-22.7267894,-28.62826721,-1.340612183
-33.24691269,-17.49202515,-3.465144196
-5.595065002,-1.633852386,2.970722351
-0.2535726929,0.4776567078,3.795357513
0.7559280396,1.848805389,0.6135740662
-0.2486329651,-2.548749847,0.5298980713
-21.31791916,-9.489965515,7.300019531
-18.35333405,-4.064647522,2.063758392
-13.83273468,-6.461762695,4.071383514
-12.07104813,-10.19305344,-22.86375458
-4.047433319,-4.138893127,-3.42832077
0.5454656982,-0.4927752686,0.3043171692
1.822909241,-2.588417358,2.387684784
-5.387596436,-11.53306686,-6.919510803
-39.71960266,-33.88623322,-2.947969666
-8.540340271,-1.969155121,1.432970123
-3.27863205,-0.9180409241,5.69131485
0.9699829102,2.794239349,2.813399506
0.5016069031,-3.823049927,-5.150040436
-1.371897125,-0.1137634277,-1.999392242
-25.08124329,-11.49684219,20.34658905
-17.24234436,-7.217391357,-1.661095734
-14.3208696,-10.99089432,1.794318695
-9.92585907,-11.389216,-0.996328125
1.67905838,-1.079704742,-3.481310577
2.414778442,-2.007475433,0.6740483093
-0.5881269836,-4.612807617,1.003363495
-23.76877258,-30.68304428,0.3523672485
-10.76621155,-6.810238037,-2.620600433
-5.29344223,-2.240540771,5.904621277
0.9521699524,2.427501984,2.257455597
4.39605835,4.978347473,-17.83526138
-0.2293231201,-2.284100189,1.095871124
-32.8021875,-13.72795258,13.62796051
-22.92198349,-6.029311981,-12.27716949
-14.39436676,-9.447453918,3.99579071
-10.91006241,-11.47753235,-8.057893524
-0.4387376404,-1.54448822,-2.603086853
1.187480621,-0.8843609619,0.3282673645
3.093467102,-3.37682785,-0.7156617737
-17.21330475,-23.49214783,-5.812562714
-38.95319641,-32.62286041,-2.779270477
-7.025789795,-2.092798004,0.9259744263
-0.7150630188,0.5920188904,3.456162872
0.9101074219,2.136357422,1.796414337
0.922381897,-3.037034454,-1.130748596
-0.9264234924,-1.728755035,0.4703219604
-28.39205841,-14.45978073,10.21176453
-13.3905542,-5.110073547,2.46297821
-13.96999924,-10.50829788,1.271006927
-9.337881775,-10.56637711,-4.169279938
1.094673615,-0.802331543,-0.3218307495
3.093167725,-2.696342926,2.081870728
-2.23021225,-6.925348663,-1.615290985
-36.29098251,-38.57478333,1.846709747
-11.83184555,-2.656525726,-3.638783112
-3.548221436,-1.23792572,6.527775421
0.6385720825,1.90254364,2.264940033
4.983885956,2.241289215,-22.10677872
-2.341580658,-1.392254791,-4.003574524
-29.86140289,-13.35432953,15.45042068
-19.76085709,-4.939129028,-23.79960846
-15.6996524,-10.62325882,3.032543793
-9.349856873,-9.052425385,-7.204368439
1.138233032,-1.844314728,-2.844235382
2.00313446,-1.556762695,1.838327179
2.023192749,-5.360353088,0.7661068726
-26.78589844,-33.27415604,3.637585602
-20.38745407,-5.972879333,-5.136269073
-5.824537811,-1.942660217,5.440735931
-0.06631210327,1.300345917,3.802692261
6.149512024,8.664881287,-29.45335144
-0.1594184875,-5.021607513,-3.496728516
-21.45892593,-8.166866913,10.03348526
-20.66931793,-1.907483368,-3.219804382
-16.22730515,-10.1324295,5.232069855
-9.985135803,-10.37223083,-14.95599884
-0.1489402771,-2.260898438,-4.013753357
0.8860075378,-1.222956848,1.104852448
3.365601196,-3.76646759,-0.2369572449
-19.57703934,-27.13078125,-7.003037109
-39.29523514,-30.64412521,-2.058668976
-6.996600494,-0.6878196716,1.438508606
-1.134191437,1.355880432,4.150419159
0.7397616577,3.145858154,2.824027405
-0.5939648438,-5.210065613,-2.037263489
-1.885479126,0.2139051819,-0.7237449646
-33.131353,-14.69449265,16.44540161
-16.83294571,-7.449857941,2.956651611
-12.49152374,-10.60649368,-0.2297721863
-5.561983795,-5.722599792,-4.49425415
0.9065148926,-0.5505551147,-0.3432362366
2.696642303,-2.104324036,0.266894989
-6.662944336,-10.93027039,-3.643872528
-41.36393326,-41.64489899,2.033820648
-7.779622192,-2.177372131,-1.025068359
-2.55309082,-0.2496807861,5.614674225
0.9313632202,2.500999146,3.21651123
0.56866745,-2.979404297,-10.05893234
-0.7732919312,0.1658551025,-0.819994812
-30.89066254,-14.85525833,18.04258026
-18.11847244,-4.195026398,-23.45756973
-14.31652863,-9.712103577,2.278262329
-9.542356567,-11.11064529,-2.207609253
1.146615601,-1.538201294,-3.14630722
2.396516418,-1.458117828,2.039658508
1.118174744,-6.360423431,1.732197876
-22.66826111,-28.94875076,0.4819976807
-41.5438591,-31.09513733,-2.637814636
-5.197791138,-2.248174896,6.012397156
-0.237406311,0.7878117371,3.171903992
2.017354889,5.153483276,-1.900747375
0.2174977112,-3.564387817,-1.629511414
-3.297941895,-0.9500743103,4.399201813
-33.28448456,-15.97792374,10.93491074
-12.97636551,-6.326144714,5.141208801
-12.91319687,-11.59863052,-0.4567002869
-4.23454422,-4.454436951,-1.934277649
1.972448273,-1.198258209,-0.8418493652
1.833836517,-1.362915802,-0.04610412598
-12.65513351,-16.16503464,-10.60619431
-38.30384674,-31.98129456,-2.518662415
-6.649023285,-2.128274231,1.533710632
-1.607956238,0.5542973328,3.892505493
0.9050180054,2.187401276,0.6014492798
0.02320175171,-3.419638824,-5.537285156
-1.101559296,-0.6433621216,0.5611830139
-30.27169968,-13.9174585,13.38591385
-13.51913681,-4.008214874,-1.734592896
-15.19460266,-9.884694672,2.387984161
-10.04501129,-11.29970215,-1.105301514
1.465602264,-2.317780151,-5.703289948
1.202599182,-1.736239471,1.484912109
-1.953587494,-7.694748688,-1.833088074
-26.38578049,-29.77173935,1.13149704
-21.87431213,-9.014554138,-3.24929306
-6.238576813,-2.343825989,4.627028046
0.2877017212,1.94236084,2.120640106
4.591102753,8.992250519,-20.09301636
0.7412585449,-2.857108612,-0.3252735901
-25.14965103,-13.3466954,7.876770172
-22.22727814,-2.488275604,-4.18424881
-14.72053848,-8.640482025,3.934118958
-10.92592941,-15.96624802,-22.9935347
-4.220174103,-4.801415405,-5.188061371
1.075064392,-0.4366419983,0.4876858521
2.725981293,-2.429597626,0.7695497131
-3.695515137,-7.473209381,-2.80591507
-44.32971588,-44.44856873,0.6418652344
-6.172713776,-2.841540985,-0.4029620361
-2.787653046,-0.79215271,5.342091064
0.9232800293,2.489622803,1.849104767
1.718426514,-2.40564743,-2.865940247
-0.4198768616,-1.020577698,-0.5084925842
-31.28778671,-16.11339203,15.62241302
-14.67458405,-5.032085724,-0.748742981
-15.14415756,-10.8810228,2.800077209
-9.99726059,-11.48965714,-3.173999634
1.481768646,-0.7673043823,-2.374512177
1.58550293,-0.656534729,1.660197601
-0.2460882568,-7.010371857,-2.117047577
-30.26017365,-30.31555847,0.1646575928
-22.33625153,-4.934488678,-4.292324066
-4.950056305,-2.423759766,5.534291382
0.060025177,2.465073853,5.03957016
6.226901093,8.343948669,-25.51683746
0.5357359314,-0.7967930603,-0.8277786255
-16.75855042,-7.68277359,11.25030487
-26.94771194,-11.97509766,5.061724091
-14.06190811,-7.094347229,5.396877136
-13.09761337,-15.40341843,-17.51283188
-5.572462006,-2.581531677,-5.216502228
1.028660889,-0.1663041687,0.880019989
2.506387939,-3.241359558,3.095263367
-8.781339111,-14.32176773,-5.489983521
-41.57020432,-24.37665848,-2.784659271
-5.942791901,-1.543141022,0.2109114075
-0.6102809143,0.01871109009,5.082381134
0.8271798706,1.696272583,2.441572723
-1.048719177,-4.072730713,-3.101550293
-1.294208679,-0.6218069458,-1.041983185
-39.06561264,-16.03525452,15.1966983
-12.81425262,-5.271737366,-0.8565188599
-15.75458817,-11.3095816,2.305655365
-10.05010071,-7.078180847,-4.762646027
1.159937897,-0.9687854004,-1.136885834
2.414329376,-1.968706055,2.044897614
-1.84760788,-7.375312958,-3.73144043
-36.03726013,-35.1060466,-0.5981561279
-11.50702103,-2.862647095,-1.97978302
-2.722538452,-0.7937992859,5.977669373
1.349743195,2.458487549,3.016676788
6.727609863,6.373146973,-30.61358871
-0.9996212769,-0.4969665527,-2.818488922
-23.53929977,-8.70305191,16.40348877
-30.02261765,-6.582112427,-2.065854034
-13.02785843,-8.698261871,3.140169983
-7.401508484,-11.23368942,-10.64750839
-0.02125579834,-2.082619171,-6.139033813
1.555864563,-1.400787048,1.158890076
0.6755451965,-5.385800171,-0.116308136
-19.76879059,-24.92032791,1.547631683
-21.47838547,-6.269562378,-4.131708069
-5.322182465,-1.985471191,3.963757324
0.2176473999,0.8958869934,2.003583527
2.76370285,4.520599365,-14.86558685
-0.8747808838,-3.660188599,-0.07454498291
-5.779631195,-0.904119873,6.401737518
-20.25468018,-1.980681152,5.998176727
-16.47758469,-8.563691711,4.885390778
-9.513017578,-10.91170898,-22.72738815
-2.481988678,-2.947221222,-3.537593536
1.008452911,-1.099763031,0.5312452698
3.398532715,-4.401596832,-0.8584648132
-12.31923203,-19.74708572,-6.117927704
-40.44110229,-36.5234491,-1.902393951
-8.351582794,-1.967957611,-0.1137634277
-2.282303925,0.1489402771,4.718637543
0.9765692139,2.568658447,1.809886322
1.837279358,-2.762355652,-1.6708255
-6.345903625,-0.8755293274,-18.72546021
-29.61067429,-12.56172775,13.06977127
-15.34309387,-5.317691803,-12.08017914
-13.86746246,-10.84629501,1.961221619
-8.111332397,-9.316326599,-2.376607819
0.6218069458,-1.183588715,-1.363215179
3.782334595,-4.258045349,-5.090015259
-2.213447113,-5.71466629,2.2348526
-34.6137204,-32.94828369,4.105362854
-13.84949982,-4.415966949,-2.962339783
-3.628155212,-0.6204597473,5.343138885
0.9117539978,2.051633606,1.529070282
4.725822601,2.952460327,-25.13228714
-1.389261017,-2.710263977,0.6378236389
-31.36352921,-11.3640683,13.14057404
-18.34300552,-4.924758911,-15.32572998
-17.4555011,-10.90706863,4.348457336
-8.990753632,-13.70415207,-20.26680496
0.8777746582,-2.082020416,-7.45464798
1.391506348,-0.5168751526,1.135388947
2.098935242,-1.319955139,0.5310955811
-18.15230209,-25.63224747,-15.92164078
-33.08015945,-18.92499527,-5.017715607
-7.107220459,-1.811083832,0.6947053528
-0.8991801453,0.6632707214,4.028123474
0.9993218994,2.316133575,1.668280792
-0.324225769,-4.295766907,-0.3818559265
-2.140698395,-0.01766326904,-2.410138092
-35.52622284,-14.28928528,10.06851242
-12.94268555,-6.184090118,5.404511261
-15.98705475,-11.89426575,2.380649414
-6.828500061,-6.997947693,-3.273243256
1.109642487,-0.5233117676,-0.1405577087
3.607797546,-4.159250793,-0.5275030518
-0.007484436035,-5.716013489,4.175866241
-33.09737366,-35.76123413,2.143991547
-16.83339478,-3.523822174,-4.221521301
-4.771327972,-1.677561493,6.258335724
1.132993927,2.769989777,2.970722351
4.206851807,3.107687531,-13.80100067
-0.02365081787,-1.1174263,-0.02484832764
-29.16550003,-12.7495871,15.84320389
-23.28423019,-5.540578308,-30.49743027
-15.70938217,-9.624385986,3.62261673
-8.965306549,-15.03847733,-13.68139938
0.2483335876,-1.894460449,-4.907993774
1.540446625,-0.8032296753,0.9765692139
3.026556244,-2.876568146,0.8451425171
-21.42285095,-24.43892899,-11.7409845
-33.70645706,-24.33863754,-2.741997986
-5.265001373,-1.345102844,2.764600983
-2.639311523,1.154998169,5.725743256
0.3463796997,3.617377625,2.692301331
-0.5713618469,-6.722969513,-5.326972504
-8.010591888,-2.703527985,7.51197876
-23.35263794,-10.06192612,5.654341736
-15.71971069,-6.584956512,4.425097961
-11.9944075,-13.86252274,-4.589605865
-6.08798996,-7.62080246,-3.995641022
1.479822693,-0.273331604,-0.5731581116
2.90186554,-1.898202667,-1.071022797
-1.721569977,-4.744533691,1.426084442
-33.94071991,-33.1843428,2.461181946
-7.925269318,-3.204236755,-3.408861237
-3.563190308,-1.258732452,6.249504089
1.154100037,2.232008514,2.664758606
2.482288055,-1.638792114,-12.50065475
-0.5330415344,-1.947899323,1.32923584
-34.85891052,-17.23620712,14.12941772
-16.16383713,-5.829477539,-0.1716929626
-15.06482254,-9.927805023,3.228636017
-12.37431747,-7.563621368,-20.70269852
0.6557862854,-0.9448352051,-4.422852631
1.10694809,-0.9247769165,1.162931671
2.748135223,-6.028713226,-2.12138855
-24.89877274,-31.68266556,1.326691132
-33.3383725,-16.07821518,-2.325264587
-5.15887207,-0.5084925842,3.46933548
-0.110919342,2.647095337,3.955524445
0.2466870117,3.167563019,2.37526062
-0.4589456177,-4.496948547,-5.328469391
-6.619684296,-1.255738678,6.349496155
-30.95068771,-12.21654556,8.158035278
-16.05486374,-8.618627472,6.3979953
-11.17875366,-11.39939484,-2.20326828
-4.9448172,-7.644453278,-4.095932465
1.094823303,-0.490380249,0.5899232483
3.516188049,-2.963387604,-1.614392853
-15.86775284,-22.20871674,-6.592590637
-41.89892075,-33.15320755,-4.128714294
-6.870861969,-1.0683284,1.732197876
-2.038460999,0.6315367126,5.764213257
0.7494914246,2.277064819,2.226769409
-0.2351609802,-3.524720306,-1.866019592
-2.314337311,-0.4146377563,1.634451141
-26.66255493,-10.36489609,12.55379425
-17.25132568,-8.517288208,3.954027557
-12.77802795,-11.9837796,1.224902802
-6.073619843,-8.560248871,-5.860762482
1.018182678,-0.3876937866,-0.3406915283
2.300266571,-2.6011409,-1.084345093
-5.760620728,-16.70211777,-3.07026535
-40.40397949,-35.35183548,2.148631897
-9.045539703,-0.7566764832,0.460891571
-3.489094391,-0.1213975525,4.666994934
0.6460565186,3.450774078,6.879094849
0.04011657715,-7.782466278,-10.93700638
-0.7015910339,0.7370672607,0.7881111145
-28.916418,-11.36167328,18.23118805
-18.47577942,-7.792345734,1.168470154
-13.02725967,-9.960437164,1.97394516
-8.391699371,-12.92936325,-5.674849091
0.8229885864,-0.4210743713,-0.6186634827
2.441273346,-1.661993866,-0.7746391296
0.7330256653,-3.736829224,2.837349701
-38.19592117,-32.26091309,0.516126709
-16.95000229,-6.842271423,-6.046077118
-3.58040451,-0.5294490051,3.893104248
1.171613617,2.177671509,3.728446655
4.309089203,-7.299720154,-27.84644302
-0.3983216858,-0.6387217712,1.006956024
-28.45537674,-12.06131836,9.654473419
-15.34024979,-5.989494781,-10.89269852
-12.68836441,-9.798174591,3.716621246
-9.39700882,-9.930798798,-7.550149384
0.4960684204,-1.348545685,-2.521356812
1.501377869,-1.218615875,-0.007035369873
0.7322772217,-3.95253067,1.854194183
-22.35586075,-22.04645416,0.2294728088
-23.64258499,-13.64921631,-6.271957397
-4.572990417,-0.8394543457,3.088227997
0.2806663513,0.4403842163,4.537065125
2.332299957,0.2633024597,1.708547058
0.6599775696,-0.9330097961,1.685045929
-16.40348877,-7.926766205,7.005432129
-31.43073944,-9.696236572,0.01122665405
-12.71051834,-8.145311737,3.337459717
-11.6321608,-9.190887451,-8.184230804
-2.622396698,-3.421435089,-3.211272125
2.229912872,-1.755399628,-1.718276825
0.8235873413,-4.930147705,0.2333647156
-23.54169479,-22.18566467,3.958967285
-30.59053665,-16.41576324,-4.600533142
-4.069287872,-0.2622546387,2.934797058
1.081351318,0.7110214233,6.572232971
2.383194122,0.7122189331,-0.2571652222
0.904119873,-0.7852670288,2.011666718
-19.01450912,-7.047045593,5.162165222
-32.19220596,-8.696914673,-2.125280457
-8.977880402,-6.73150177,3.115022278
-10.94104797,-13.42737762,-15.719561
-5.227878571,-5.417384491,-4.214934998
2.074685669,-1.530716858,-2.874771881
1.725012817,-4.314178619,0.2341131592
-14.26054504,-15.7301889,-3.401825867
-41.76629654,-29.03542053,-3.276835785
-4.888085175,-0.4125421143,2.124532013
-1.453028412,0.3420387268,4.912185059
1.250050507,2.584076385,1.935774536
-0.17902771,-6.47523468,-14.25021652
-3.881877594,-3.369044037,10.62026505
-30.3736377,-11.54159912,7.296726379
-15.93436432,-7.172484741,5.061275024
-14.58432175,-10.98790054,1.15365097
-6.473438416,-7.207511902,-5.130281525
1.067430267,-0.03233276367,0.4444258118
3.205134888,-2.559377747,-3.496728516
-6.941065979,-8.929980011,-2.435285797
-43.51076889,-31.98832993,-2.17991684
-7.300019531,-1.971101074,1.539548492
-4.63002182,-0.3917353821,6.404880981
0.6171665955,4.091142426,4.161795502
1.812730408,-4.365521851,-9.546547852
-0.3227288818,0.1523831177,0.8753796387
-26.35988434,-12.81889297,21.24127853
-19.92102402,-6.827901306,0.03083587646
-13.47961899,-9.676028595,1.992207184
-8.261470184,-9.476792908,-0.7816744995
1.892963562,-1.753154297,-3.336561584
3.436703339,-4.181105347,-2.439028015
-2.171085205,-6.256240082,0.9472302246
-39.50569748,-32.56972092,-0.5613327026
-11.72826096,-5.358107758,-2.57180191
-4.300706635,-1.926194458,6.042484589
0.2956352234,1.392254791,1.482966156
3.314108276,7.145091705,-22.20407639
-0.9692344666,-2.236199799,0.3344046021
-33.21323273,-10.51653076,11.80100967
-18.94909515,-5.736670532,-3.106939087
-15.78632217,-12.03976318,2.939736786
-10.61727127,-11.00960541,-6.107449493
-0.6283932495,-1.834584961,-3.878285065
1.196611633,-0.5084925842,1.068927155
2.883902893,-3.019371185,0.274379425
-20.22429337,-27.64930298,-7.463778992
-34.87133469,-21.97250793,-2.053429871
-5.779930573,-1.179247742,2.642904053
-1.100062408,0.9776170349,4.006568298
0.8571176147,2.089055786,1.969903564
0.204175415,-1.96226944,0.5939648438
-10.03333557,-4.476890259,3.643273773
-26.57483734,-11.72915909,6.790928192
-15.98930008,-7.555837555,4.691394196
-13.90712997,-11.82840271,0.6065386963
-4.942122803,-5.061724091,-4.124972076
1.076261902,-0.2903961182,0.3403921509
2.795586548,-2.332898712,0.9264234924
-5.211861877,-9.722881165,-4.732558594
-42.12495071,-37.43939438,-1.217867432
-7.314090271,-1.82530426,0.3547622681
-3.494333496,-0.9375004578,6.429729309
0.9683363342,3.102149048,3.737727356
0.4890330505,-4.479884033,-5.985902252
-0.3775149536,-0.04146377563,0.126486969
-28.02756638,-14.31727707,14.78295868
-16.13120499,-5.242098999,2.504441986
-13.51808899,-10.50455566,2.604883118
-10.24709106,-11.90564209,-3.653302917
1.304088135,-0.4372407532,-0.6215075684
1.992955627,-0.8843609619,-0.2462379456
0.06990463257,-3.298241272,2.532134399
-25.48689972,-26.29656601,0.844094696
-16.43058243,-7.2486763,-5.857918396
-4.825964355,-1.910028076,4.882846069
0.8852590942,1.786534882,3.718417511
4.689897308,4.474644928,-23.90034897
-0.01077758789,-2.062411194,0.9999206543
-35.98382126,-15.51164337,11.29296616
-21.72462341,-5.151687012,0.3668870544
-14.20336395,-9.073830872,3.531156921
-12.14050369,-15.0627269,-16.72636734
0.05328918457,-1.260379028,-3.708837433
1.39120697,-0.6637197876,1.259780273
3.858526154,-2.719844055,-0.7421566772
-11.49759064,-16.74597656,-7.559430084
-40.43092346,-34.08277451,-0.2424957275
-5.3602034,-0.3861968994,0.8744815063
-1.863774261,0.841999054,5.517825623
0.2347119141,3.490291901,4.636159058
-1.699865112,-7.944429474,-8.813222809
-1.745220795,0.3077600098,4.304149475
-31.10830994,-11.31676666,17.26719269
-19.27212341,-7.920479279,3.574716339
-12.70962021,-9.581425323,1.820514221
-8.176746368,-8.315507813,-1.024619293
0.6505471802,-0.6740483093,-0.5062472534
2.591261444,-2.054777069,1.549128571
-2.460433502,-6.649472351,-1.372196503
-36.95245697,-37.71272598,2.060914307
-8.65979187,-2.46776825,-0.7545808411
-4.487069092,-1.332379303,7.300767975
0.9571096802,2.789149933,3.226839752
1.520837402,-2.962040405,-4.572391663
0.2616558838,-0.7207511902,-0.1323248291
-33.08060852,-13.85399048,17.48319351
-16.79896637,-5.301076355,-6.874155121
-14.97755402,-10.53658905,2.939736786
-10.69720505,-13.38771011,-6.357429657
0.5842350769,-1.039288788,-3.366798706
2.285597076,-1.767374725,-2.102827148
1.425635376,-2.093845825,1.723665619
-25.46070419,-25.81247269,-1.3350737
-18.42742996,-8.938063202,-4.721481628
-5.477858734,-1.617236938,3.985462189
-0.3318598938,1.392554169,3.613336029
4.616699524,4.639003143,-23.03305252
-0.5780978394,-3.843108215,0.2564167786
-5.672753448,-0.9979747009,7.90042099
-23.03784256,-6.982380066,6.687193909
-16.37564667,-8.07361084,5.237758026
-10.5532045,-11.91671906,-21.22660904
-2.130968628,-2.952909393,-2.480042725
0.9334588623,-1.161584473,-1.321452026
2.881358185,-2.98015274,-0.6756948853
-17.38499771,-20.42442719,-8.504414978
-43.24866394,-38.08440308,-1.684447174
-6.372697906,-1.504221954,-0.1305285645
-1.774859161,-0.2793191528,5.839057617
0.8138575745,2.697390747,3.593128052
0.1788780212,-5.361700287,-4.673880615
-0.409997406,0.2076182556,0.6732998657
-34.36224335,-15.12978745,18.87335266
-18.71782608,-6.139333191,3.119512939
-12.39632172,-10.80348404,3.689377899
-9.246871033,-12.25097397,-5.587580566
0.7818241882,-0.8731343079,-1.234033813
3.872147827,-2.667303314,-1.200802917
0.03053649902,-4.7563591,3.765120392
-30.43246536,-34.20671677,-0.3450325012
-16.89910812,-4.682562561,-6.377038879
-4.214485931,-1.08464447,6.174360352
0.3261717224,2.444566498,3.096311188
6.177204437,5.353018341,-29.17208633
0.1062789917,-1.072819061,-0.573457489
-29.4831395,-11.99380875,12.68342468
-21.38198593,-0.2097138977,-29.29887268
-16.00022736,-11.43457169,3.715723114
-8.475525055,-12.61875916,-6.136339417
0.7467970276,-1.74462204,-3.263214111
2.3834935,-1.941462708,-1.17939743
2.167642365,-3.329526215,2.230511627
-25.8216037,-28.57033768,2.602488098
-20.22683807,-7.614515533,-5.393883362
-5.836961975,-1.215322723,3.662134552
-0.3091072083,1.723066864,4.272565155
5.869893494,7.944579163,-27.41114822
-0.5671705627,-5.464237061,-2.109114075
-6.931036835,-2.583028564,8.92189682
-29.71785141,-2.15297287,-9.862391052
-13.79291748,-6.531068573,2.193239136
-13.97164581,-14.41846664,1.861379242
-4.781207428,-5.144951019,-5.382656708
1.410217438,-0.6237528992,-0.4129911804
3.351231079,-1.90957901,-1.945055237
-4.518803101,-6.669081573,3.474275208
-44.46593262,-40.49978027,0.1594184875
-8.275540924,-1.751358032,-1.011596375
-3.639082489,-0.2516267395,7.12697937
0.8333171082,2.230661316,2.754571838
1.740730133,-2.759361877,-11.24042542
-0.7822732544,-0.4863386536,-0.4891827393
-29.06401108,-13.06393341,13.24909836
-15.98690506,-4.593348083,-2.644550629
-15.48050812,-10.36938675,2.169139252
-9.764794006,-9.086105347,-3.909120941
1.411265259,-0.3429368591,-1.395098877
1.338965607,-1.217268677,1.656006317
-2.138303375,-8.702303467,2.56596405
-28.95578613,-30.50656128,-0.7447013855
-29.04874283,-11.33158585,-4.339476013
-5.880671082,-0.8035290527,5.913003845
0.1437011719,2.907104645,3.756588135
5.140759735,6.339017944,-17.54770935
0.398770752,-1.824555817,0.3330574036
-24.93499741,-14.69583984,9.320667572
-25.94524658,-1.337917786,-20.73233688
-16.48776352,-8.574319611,3.853885803
-9.749376068,-12.7018364,-24.32606369
-0.7972421265,-1.185684357,-5.718857574
0.9723779297,-0.6051914978,1.050365753
1.862127686,-2.395917664,2.036814423
-15.88541611,-22.58518387,-6.602170715
-39.36963043,-25.46384766,-2.910547485
-5.999224548,-0.6396199036,1.338516541
-1.200353851,0.5571414185,4.675527191
1.254690857,2.73331604,2.644850006
0.3044668579,-2.528392181,1.137035522
-0.7719447327,-1.043779449,0.5665718079
-35.9234967,-14.18899384,12.30785568
-14.50214264,-5.097050629,4.527634735
-13.97074768,-11.17052078,-0.94543396
-4.931794281,-5.519172821,-2.413580933
1.053209839,-1.016386414,-0.08412506104
3.268303528,-4.265529785,-3.334016876
-7.747439117,-11.3720018,-6.754254456
-43.08295853,-37.69341614,-0.4836442566
-11.15510284,-1.97155014,-1.819316711
-3.014431458,-0.1681004333,5.923482056
1.108295288,2.361489258,3.238066406
4.038901062,-3.873495026,-11.411819
-0.5158273315,-1.038690033,0.1368154907
-35.84805359,-17.57794647,13.34235443
-15.69875427,-3.825444946,1.842368774
-13.02007462,-8.830137634,2.53093689
-10.77564194,-10.66666855,-1.65914978
0.6526428223,-1.7703685,-3.426225128
2.672542419,-2.052531738,1.433419189
0.7375163269,-6.168073425,1.70016449
-32.81371353,-30.69007965,3.851341095
-24.34896606,-8.723708954,-8.430768127
-5.003794556,-1.48955246,3.976480865
0.05164260864,0.910556488,3.438499603
1.399290161,6.846911774,0.6364764404
0.2248324585,-2.954855347,1.368154907
-28.23069397,-11.61120438,7.959548035
-21.88883194,-1.107247467,3.355871429
-17.30671051,-11.07457031,4.360432434
-10.64825684,-10.74181229,-8.574169922
-0.2514770508,-1.546733551,-5.651048584
0.9621990967,-0.5083428955,0.6577322388
1.64283371,-2.273023224,0.7432044983
-18.9193071,-23.06164307,-10.66816544
-35.26576447,-24.63966156,-4.567002869
-5.761369171,-0.4044589233,1.507365417
-2.630180511,0.2713856506,6.238576813
0.8872050476,3.935915222,3.141966248
0.603993988,-4.545298004,-1.07057373
-1.164578247,-0.26210495,-0.1579216003
-29.90810577,-13.77570328,9.934091949
-14.98369125,-5.683381348,4.511767731
-13.03953415,-11.60865967,-6.493347015
-8.231682129,-7.744295654,-3.672612762
1.165326691,-0.2046244812,-0.4258644104
2.970722351,-2.201172638,0.4120930481
-1.861079865,-6.23767868,-1.110989685
-36.33663757,-39.38669495,-0.8622070313
-8.73463623,-2.92057663,-0.987197113
-3.975732422,-1.034798126,6.629114685
1.110839996,2.208806763,2.269430695
4.180955658,-0.8881031799,-20.19390656
0.03278182983,-1.049018555,0.4366419983
-33.62023636,-15.23741364,14.75302094
-16.23089767,-3.751199341,-3.329376526
-14.58641739,-9.204359436,3.037333832
-10.27882507,-13.08863205,-3.123853912
1.729204102,-1.526226196,-5.044659576
1.350491638,-0.5529501343,0.9134005737
0.8119116211,-3.036735077,0.3047662354
-22.90611649,-22.19180191,0.2923420715
-28.30074829,-8.556506653,-6.853049011
-5.044060822,-0.2109114075,3.368145905
0.7729925537,2.190245361,4.356839905
2.29682373,6.077511749,-0.1809736633
0.5987548828,-2.883902893,0.3046165466
-21.47673889,-10.84360062,8.643026733
-28.82016815,-6.797813873,4.577181702
-13.03713913,-5.991740112,4.783901825
-13.32439178,-9.514813843,-23.24995148
-4.027225342,-2.056872711,-3.049907684
1.313219147,-0.9882449341,-0.1667532349
2.509232025,-2.617756348,-1.058448944
-13.09102707,-16.55542282,-8.331973572
-41.47155945,-23.29276245,-1.669029236
-6.713239746,-0.9867480469,0.06556365967
-2.372266846,0.1196012878,4.910388794
1.133442993,1.817819824,1.462458801
0.509690094,-3.104843445,-0.4909790039
-0.8954379272,-0.7170089722,-0.09310638428
-33.39465546,-15.83003128,12.95226563
-13.24640396,-4.350552979,1.520538025
-14.85331238,-11.17785553,-6.033802643
-8.8903125,-6.846762085,-1.617835693
1.216669922,-0.8488847351,-1.61349472
4.114344177,-4.245172119,-3.930227051
-2.807711334,-6.354585571,-0.6590794373
-44.69061539,-39.01217377,-0.6957531738
-7.402406616,-3.507506104,-1.267264709
-3.752097473,-1.329984283,6.284082184
1.356329498,2.393223267,1.988614655
2.864443359,-4.338128815,-8.015232239
-0.4677772522,-1.299747162,1.099014587
-34.13546494,-14.98219437,12.01087326
-13.38486603,-2.658321991,-3.385809174
-17.03846832,-10.16416351,3.298989716
-11.16992203,-10.11895752,-2.623594208
1.009949799,-1.388961639,-3.381917267
1.349443817,-1.918859711,2.081721039
3.12415329,-7.432943115,-6.467151489
-26.54145676,-29.24887665,1.08344696
-30.30029022,-13.29430435,-6.918912048
-5.243296509,-0.9819580078,3.081492004
-0.2145039368,1.920655975,6.317762146
0.4668791199,2.822081451,1.061442719
-0.2481838989,-3.634142761,-1.23448288
-23.59019394,-8.83881958,11.28323639
-19.0281308,-1.849254456,6.070925446
-18.5887944,-10.25517426,5.656736755
-11.52109177,-7.865244141,-19.78645386
-2.455493774,-2.767594757,-5.447621613
0.9773176575,-0.9247769165,1.34091156
2.197131042,-3.16621582,1.322499847
-17.62105682,-23.68824005,-5.251679077
-40.83598114,-30.1838324,-0.353714447
-6.016738129,-0.3116519165,0.5791456604
-1.30348938,1.114432526,4.601131897
0.5448669434,2.937192078,4.266577606
0.01706451416,-5.111720123,-3.109633484
-1.658700714,0.2053729248,3.105891266
-35.54957428,-12.53658005,9.655072174
-17.49456985,-7.337142334,4.079017639
-10.9950856,-10.13257919,-4.662055206
-6.381529541,-6.676865387,-1.203347626
0.7420069885,-1.029259644,-1.238973541
3.179538116,-3.464695129,-2.609074402
-5.363197174,-8.815318451,-0.8646020508
-41.11065994,-37.05035339,0.3772155762
-7.670948181,-1.877695313,-0.4546046448
-3.923940125,-0.4037104797,5.404062195
1.007255402,2.280807037,2.169438629
3.664828949,-0.536484375,-17.14250198
-1.541344757,-0.7610174561,1.832189941
-21.69378754,-8.125702515,12.69420227
-15.67675003,-4.779860229,2.158211975
-15.86625595,-11.66434387,2.361339569
-10.04905289,-10.40785675,-4.195625153
1.487606506,-1.05545517,-3.903283081
2.098186798,-2.185605011,0.4348457336
1.002165985,-5.987399139,-1.018482056
-18.7016597,-22.33595215,-0.9458830261
-23.0147905,-5.78022995,-4.435576172
-5.813610535,-0.8375083923,3.880829773
0.08083190918,1.549427948,2.860102386
6.424490204,4.404889984,-24.73516296
-0.2674937439,-3.28911026,1.063837738
-31.38718002,-13.35088669,12.41278748
-21.92221252,-3.177592163,-11.31512009
-16.70585999,-8.911119232,4.730013885
-10.17179764,-11.10316086,-15.86790253
-1.004111938,-2.58467514,-4.271816711
1.059646454,-1.084045715,0.5297483826
3.173999634,-3.463946686,-0.843046875
-17.88346115,-23.27330292,-5.068609772
-42.40726364,-27.21969635,-3.488196259
-6.72686142,-0.4361929321,2.061513062
-1.04722229,1.825603638,3.776945801
0.6433621216,2.086960144,0.8219407654
-0.3838018799,-4.363126831,-0.4273612976
-2.603685608,-1.274898834,2.472857666
-27.3066655,-13.45626755,10.2559227
-15.55131088,-4.798721008,3.545676727
-12.8928392,-14.06415344,-6.875951385
-5.31799118,-7.740403748,-5.107229462
1.096170502,-0.7282356262,0.2914439392
2.905757446,-2.321522369,-1.982327728
-2.634521484,-6.330785065,0.7592211914
-40.08963318,-37.19255768,2.620600433
-11.44579834,-3.444487152,0.3983216858
-3.730542297,0.1886077881,5.028343506
1.575024719,3.090922394,2.036515045
1.619631958,-1.873803406,-5.149291992
0.8300239563,-1.86048111,0.758921814
-31.3702652,-15.71746536,11.6812587
-20.19779846,-4.368515625,-3.041974182
-14.41547287,-9.054820404,3.210373993
-10.15338593,-10.67250641,-13.54548203
0.6821315002,-3.066972198,-7.338938599
1.240620117,-0.642613678,1.74806488
1.861828308,-3.924987946,2.431992645
-22.46767822,-29.82892044,-0.8396040344
-27.49841675,-10.53254745,-6.064189453
-5.825136566,-1.48835495,2.787054291
-0.4715194702,1.186133423,4.058210907
1.39360199,3.299738159,0.4629872131
-0.3993695068,-4.225413208,-0.3826043701
-2.118245087,-0.4369413757,6.358926544
-21.95020432,-2.555036774,6.583459625
-15.42662018,-8.487649841,4.572092285
-9.869576111,-12.97277298,-20.54313034
-2.585273895,-3.854634247,-4.531077576
1.355281677,-1.508862305,-0.4558021545
2.644550629,-2.97431488,1.15844101
-16.46920212,-21.8561998,-7.434589691
-41.0926973,-30.25119232,-4.006717987
-7.320975952,-1.362466736,1.594334564
-2.232457581,0.8753796387,4.460125122
0.1811233521,3.516038361,3.193459167
-0.3838018799,-5.637127533,-3.258424072
-1.784888306,0.4857398987,1.657203827
-28.4718425,-10.69091812,16.55347687
-16.67068314,-7.246131592,1.052760773
-15.16391647,-10.63253952,2.180365906
-7.398514709,-8.376880188,-4.428241425
0.8701405334,-0.4790039063,-0.169896698
2.100432129,-1.457818451,1.746717682
-0.6333329773,-5.363197174,0.3031196594
-34.80502258,-34.24683334,1.101858673
-13.14296906,-2.499951324,-2.716401215
-4.45099411,-0.9825567627,6.831643524
1.101858673,2.371518402,3.350632324
3.725303192,-0.5397775269,-14.29976349
-0.8144563293,-1.207987976,-1.018781433
-30.36330917,-13.21437057,15.54457489
-16.13255219,-2.236499176,-18.21547073
-18.2928598,-11.43472137,2.960393829
-10.21086639,-11.61779068,-3.788920898
1.842069397,-1.509161682,-4.716092834
1.894011383,-2.194736023,-0.2619552612
-0.3135978699,-5.374573517,2.075284424
-24.52949066,-24.88425293,0.4652325439
-26.70626404,-9.626631317,-4.259991302
-5.156926117,-0.7647596741,3.573369141
-0.6221063232,1.426234131,3.122057648
4.85006424,6.310128021,-20.00544846
0.08861572266,-2.77657608,-0.09295669556
-23.55381958,-9.211245117,10.14096176
-20.40481796,-2.470911713,-5.316194916
-16.10800323,-8.919052734,4.182602234
-10.18452118,-14.96168701,-21.3532457
-2.395318909,-2.958298187,-3.077749786
1.267115021,-1.169817352,-0.5981561279
2.98374527,-2.90411087,-0.7557783508
-16.54090302,-18.96062119,-9.353299713
-41.02413986,-33.21936996,-1.764081573
-8.347990265,-0.9702822876,1.028062134
-2.78241394,0.4529580688,6.012696533
0.7860154724,3.052452393,3.159928894
0.4529580688,-3.642076263,0.1347198486
-1.849254456,-0.1695973206,0.9199868774
-30.95532806,-12.06865311,9.198222198
-16.64942734,-6.058052216,2.718496857
-13.52257965,-10.71696396,2.26523941
-4.831652527,-6.671476593,-2.77777359
1.129850464,-0.4921765137,-0.1172062683
2.463427277,-2.656525726,0.4264631653
-9.286688232,-13.31346451,-5.882766724
-40.28602478,-33.31292542,-3.65180603
-9.122479706,-2.176623688,0.6186634827
-2.791994019,-0.1519340515,5.77903244
0.5649252319,2.310445404,2.55668335
2.241139526,-4.4604245,-10.87264023
-1.124162292,-0.4384382629,-1.07880661
-25.46220108,-10.83042801,14.85346207
-16.53386765,-6.519542542,-4.22406601
-15.11900986,-10.21715332,1.552122345
-8.55096817,-7.06141571,-1.06593338
2.471959534,-1.284179535,-6.161786499
1.728006592,-2.383044434,-0.8578660583
-3.873195648,-7.382498016,-0.4028123474
-31.71065735,-34.27347794,0.5529501343
-15.24414963,-7.095844116,-2.855761414
-5.096751251,-1.193019104,5.645061035
0.426612854,1.401086426,1.542841644
3.991449738,5.304219818,-16.45842453
-0.9750723267,-4.825515289,-0.6074368286
-12.26758942,-4.154161377,9.511820068
-28.13444412,-0.9735754395,-22.45525406
-15.43799652,-8.643775177,4.73061264
-10.83671494,-15.3838092,-7.914791107
-3.000809784,-3.742068329,-5.309758301
1.088087311,-0.5653742981,0.5131329346
3.418441315,-3.448379059,-0.5111869812
-15.56687851,-19.61296463,-5.895490265
-41.85146942,-29.37177109,-2.278561707
-7.234156494,-0.6685098267,1.389560394
-3.136727142,1.133293304,4.585115204
0.2616558838,3.879781952,3.123105469
1.244512024,-4.57149353,-1.751956787
-1.873504028,-0.02080673218,-3.046764221
-27.6967543,-11.57063873,12.5756488
-16.92111237,-7.04973999,0.5352868652
-14.87771164,-9.660011902,1.976340179
-9.021589508,-8.747060394,-2.343227234
1.036594391,-0.7915539551,-0.8228388977
2.005828857,-2.19159256,1.916315002
-5.021457825,-9.516909485,-5.406008148
-37.31635025,-35.08853302,0.7698490906
-14.09454025,-2.547103271,-2.292632446
-4.441114655,-0.2609074402,6.326593781
0.8584648132,2.340083771,2.930156708
3.441343689,-0.2377056885,-16.46096924
-2.35535202,-0.832868042,-7.884254608
-30.08129562,-9.187145233,20.55136322
-26.38922333,-11.55357422,-56.98784317
-14.45274536,-10.08378067,3.268153839
-8.841813354,-9.706265717,-4.304598541
0.7619155884,-2.299667816,-5.871240692
1.36665802,-1.286724243,0.9205856323
-2.095342712,-5.372926941,1.09048233
-25.88162888,-29.2030719,3.988156586
-20.45406555,-8.083789673,-4.461771698
-5.768254852,-1.608255615,4.994364166
0.7035369873,2.027533722,3.020718384
4.022435303,6.938670959,-17.92238022
-0.3606001282,-4.238735504,0.5423222351
-33.77291885,-12.15158066,12.4561972
-23.7871843,-2.818488922,-7.319928131
-15.66941528,-8.427325287,4.760550385
-10.62804886,-12.13271988,-7.759114838
-0.6732998657,-2.192640381,-4.686604156
0.9452842712,-1.064286804,0.1692979431
2.902913361,-3.59567276,1.026565247
-16.96631836,-19.35041061,-8.332422638
-43.71509399,-35.55705872,-1.385518799
-5.812562714,-0.08487350464,2.144141235
-2.45489502,1.190624084,5.39762558
0.1207987976,3.42368042,3.61558136
-0.863404541,-8.167615356,-7.868986359
-1.31396759,-0.5102888489,2.779420166
-29.38404556,-10.55904236,15.77060486
-16.6964296,-7.103029175,5.589376831
-12.6686055,-9.555978241,1.171164551
-6.020480347,-6.723418579,-1.50826355
0.9053173828,-1.471889191,-1.458267517
2.443967743,-3.468886414,-1.191971283
-10.50874695,-14.22042847,-7.996670837
-42.30502625,-30.63798798,-3.726051636
-8.37897583,-2.93344986,1.294957123
-2.014361115,0.5801934814,4.593348083
1.136736145,3.044069824,2.032623138
-0.7517367554,-2.951113129,-1.805545349
-1.167572021,0.4384382629,-2.18216217
-37.92273926,-14.75302094,19.23904221
-15.31315613,-3.171903992,-7.973768463
-15.92208984,-9.663604431,2.83630188
-10.55365356,-12.00533478,-4.151916046
0.6876699829,-1.930834808,-3.242706757
1.637744293,-1.820364532,1.159189453
0.05463638306,-5.209317169,1.028062134
-28.23204117,-28.09911758,2.793191528
-29.13975357,-12.06625809,-4.509223022
-6.276597748,-0.9050180054,5.071453857
0.8539741516,2.928809509,2.304008789
3.99234787,6.69871994,-14.82532059
0.227227478,-3.630550232,-0.168848877
-20.66782104,-9.372310181,11.29985184
-25.56324097,-6.2400737,5.180576935
-16.30214951,-7.662565613,5.363197174
-8.771759033,-11.8842366,-26.29162628
-2.989134064,-3.283721466,-3.454665985
0.730480957,-1.256187744,-0.1151106262
3.166664886,-4.292473755,-0.5989045715
-14.51366867,-18.60840363,-7.401658173
-40.95408554,-27.85198151,-2.246678009
-6.335575104,-1.038240967,1.270108795
-2.35071167,0.7601193237,4.590503998
0.3905378723,1.82889679,0.8896000671
-0.3095562744,-3.286266174,-0.2035766602
-1.90254364,-0.3100053406,-3.315605164
-25.11701889,-11.67976181,10.41010208
-17.01272186,-6.158493347,3.556753693
-15.78961533,-10.47806076,2.2348526
-8.236023102,-8.069120178,-3.21306839
0.6616241455,-1.452729034,0.03652404785
3.282523956,-3.490291901,-1.048120422
-3.921395416,-8.411009216,1.854493561
-37.57246765,-34.19219696,2.852168884
-15.89319992,-2.535128174,-1.357377319
-3.488944702,0.2480342102,4.764741669
0.9726773071,2.062560883,2.47704895
5.043761444,-2.287393341,-12.91244843
-0.2857557678,-0.9337582397,-0.540226593
-31.50977509,-10.95197525,16.03211105
-23.47882553,-3.810027008,-33.62607422
-15.35102737,-9.042545929,4.611011353
-8.531209259,-13.89650208,-13.73049728
0.439486084,-2.17991684,-4.535717926
0.9674382019,-0.7253915405,0.973276062
2.065404968,-4.248016205,-0.8183482361
-19.35130875,-21.11733627,-0.04236190796
-33.11892883,-19.57314743,-5.428162079
-5.34733017,-0.520916748,2.70637207
-0.264200592,1.359772339,3.434757385
0.7343728638,3.844305725,-12.91214905
0.2820135498,-3.3522789,-0.09804611206
-6.926246796,-2.154020691,5.76735672
-29.58388,-5.624403992,3.818259888
-11.97045731,-5.986800385,4.855303345
-12.44152771,-12.95720535,-9.41796524
-3.820505219,-3.258274384,-3.652853851
1.046324158,-0.6676116943,-0.6706054688
2.802472229,-3.268752594,-1.198258209
-11.40238861,-14.63297058,-4.763693848
-38.8564975,-36.33079971,4.354145508
-13.62466736,-2.283501434,-2.190993805
-2.946772156,0.5746549988,4.51775528
0.7213499451,2.769391022,1.752106476
0.4107458496,-1.420396271,-4.022285614
-0.7804769897,-0.4649331665,-0.8168513489
-28.58710281,-14.86349121,17.55519379
-18.38641525,-4.687651978,-0.4007167053
-15.45715668,-11.17531082,2.183060303
-9.917177124,-10.30412247,-3.668870544
0.96414505,-1.105002136,-1.639091492
3.032693481,-3.000510406,-2.20207077
0.6116281128,-4.143683167,2.08276886
-31.07103745,-29.42745529,3.878135376
-18.45631989,-4.47210022,-4.804558868
-5.998625793,-0.5671705627,3.640729065
0.4947212219,2.18335968,4.069736938
7.076833649,5.233117676,-26.74593155
-0.2698887634,-4.163442078,-1.083147583
-18.2118782,-6.169570313,12.68641846
-23.46834732,-2.848127289,-15.14355881
-15.12963776,-8.531957703,5.653293915
-9.214837646,-12.6593248,-19.66849915
-0.1782792664,-2.037562866,-3.494932251
1.659299469,-1.419647827,-0.6993457031
2.549797668,-2.736758881,1.154399414
-20.22953247,-24.64011063,-8.060288544
-36.42989365,-31.0822641,-2.624192963
-6.412365417,-0.9157955933,1.245410156
-0.7939489746,0.5140310669,4.577780457
1.042282562,2.631228333,2.222727814
0.3589535522,-5.093907166,-1.95987442
-0.6906637573,-0.7420069885,2.69125351
-27.82443878,-10.46967819,7.275470581
-14.21144714,-5.713169403,3.059038696
-14.42475357,-12.60274246,-1.070274353
-6.572831726,-4.797673187,-5.566474457
1.127605133,-0.005388793945,-0.6351292419
2.854264526,-2.192640381,-0.7791297913
-3.101250916,-7.08132431,-1.696122894
-40.34455307,-41.25555862,0.808768158
-9.552086334,-2.941832428,-1.507515106
-2.800975342,-0.4450245667,5.416636047
0.416434021,2.496059418,3.67994751
3.037633209,-3.102149048,-17.44322662
-0.6523434448,-0.01422042847,-0.783021698
-31.09858017,-9.935588837,17.25521759
-25.25548096,-2.919678497,-42.76262466
-14.29422501,-10.06506958,3.276536407
-6.072422333,-14.87546631,-19.4779454
0.1492396545,-1.621278534,-2.549947357
1.944456482,-1.836231537,-1.272354126
1.351240082,-5.551056519,0.4948709106
-28.67332352,-28.52438324,1.553768921
-19.44321762,-5.886808319,-5.045857086
-5.570366364,-1.927541656,4.831053772
-0.1654060364,1.412013702,2.830164642
6.136489105,5.308560791,-24.76046036
0.1447489929,-3.504811707,0.9934840393
-23.6385434,-15.06467285,10.92518097
-22.80941757,-6.155649261,-7.42770401
-14.07328445,-8.794062653,3.443139954
-12.95346313,-12.32417175,-7.12937439
-2.006427612,-2.161654816,-4.094734955
1.711540833,-1.182091827,-1.721420288
1.188977509,-1.709145813,0.4273612976
-12.83086807,-16.14976639,-5.93934906
-34.0642131,-22.02953934,-3.226091309
-5.881718903,-1.285526733,-0.3887416077
-1.749711456,0.1059796143,4.247567139
0.6718029785,1.904639282,2.384391632
0.2643502808,-3.128344574,-2.207160187
-1.895807648,-1.94236084,0.106129303
-19.79333954,-4.629273376,6.425238647
-13.55551117,-4.435725861,2.582878876
-14.49286194,-14.22282349,-10.2652034
-7.967331848,-4.053570557,-6.989116058
1.06249054,-0.6593788147,-0.03712280273
3.502865753,-3.118016052,-2.731070709
-0.5328918457,-4.152065735,1.523980865
-37.26695297,-35.54164078,1.574276276
-11.49953659,-2.36942276,-2.280058594
-3.943100281,-0.7093748474,6.744674377
1.446142731,2.682421875,2.167193298
3.846401367,-1.810634766,-13.36166428
-0.008831634521,-1.047072601,0.8674461365
-29.61426682,-14.01460648,12.31998047
-18.87320297,-4.022285614,-4.638554077
-15.54397614,-9.758806458,3.038231964
-11.60386963,-11.08145599,-15.31824554
0.8680448914,-1.005758514,-4.04024826
1.750010834,-1.330583038,1.848356323
1.014889526,-6.568191376,-0.4558021545
-20.34539154,-25.12704803,-0.5334906006
-35.44090027,-19.38678497,-3.33596283
-5.139562225,0.1612147522,2.829116821
0.07634124756,2.11555069,3.067870331
1.615740051,4.483326874,0.2270777893
0.3942800903,-1.694626007,1.368603973
-31.3091922,-13.5484758,6.80050827
-16.31172958,-1.325792999,-2.194137268
-14.97321304,-6.447242889,3.413052521
-11.48816025,-15.74186462,-22.27487915
-6.963519287,-6.27285553,-3.761378174
0.9813592529,-0.5794450378,-0.6788383484
2.206262054,-2.248474274,0.05658233643
-6.069877625,-10.5677243,-4.560117188
-40.72805557,-22.52081772,1.06473587
-8.024512939,-0.6876699829,-0.3159928894
-2.672542419,0.1442999268,5.743107147
0.8414002991,2.266586609,3.049757996
-0.4549040222,-4.033961334,-1.428180084
-1.155297546,0.1213975525,-1.69657196
-31.660811,-13.71013962,16.72187668
-18.19631058,-5.809119873,4.01569931
-14.52264999,-11.37888748,2.193239136
-6.971602478,-7.81734375,-4.114493866
0.7798782349,-0.7077282715,-0.5432203674
2.958148499,-2.742746429,-2.411784668
-3.828289032,-7.79399231,-0.466280365
-41.70372665,-38.9241568,0.5554948425
-11.79262711,-2.19039505,-2.807262268
-3.656596069,-0.2080673218,5.829627228
1.66618515,3.006497955,4.449197845
1.403780823,-3.489693146,-8.769064636
-0.6896159363,-0.03607498169,-0.8647517395
-33.12312012,-12.22882004,18.58011246
-16.24212433,-7.544910278,5.247487793
-14.88040604,-10.43435165,2.762205963
-8.45037735,-10.99463654,-3.377426605
0.672102356,-1.224453735,-1.791624298
2.730471954,-3.210373993,-2.717449036
-2.771037598,-7.801925812,3.864214325
-30.27110092,-32.14505402,2.819985809
-27.01267685,-8.296347656,-3.753145294
-5.15542923,-0.8273295593,5.197791138
0.4553530884,2.388582916,4.158202972
4.673431549,0.5676196289,-14.13794998
-0.2647993469,-0.781973877,-1.023571472
-31.00831787,-14.22911041,19.72627899
-18.77800095,-3.141816559,-21.2084967
-15.16601212,-9.724378052,3.01532959
-11.27290787,-10.17239639,-2.505340118
0.496816864,-1.829794922,-5.212161255
1.665736084,-1.489103394,1.060843964
2.637964325,-4.384831696,-0.1606159973
-22.87947189,-27.23002487,-0.03802093506
