AccX,AccY,AccZ
2.515219574,-0.6390211487,-9.49759964
3.490441589,0.3490740967,-9.001381531
3.360062714,-0.2053729248,-9.368418274
3.421884155,-0.08831634521,-9.078022156
3.315754852,0.0347277832,-9.532477112
2.958298187,-0.3525169373,-9.394314423
2.780617676,-0.5312452698,-9.360035706
2.846480713,-0.09969268799,-9.377698975
2.828667755,-0.31943573,-9.400152283
2.710263977,-0.06945556641,-9.410929871
2.898722076,0.170944519,-9.353449402
2.680924988,0.07619155884,-9.453740845
2.74499176,0.2764750671,-9.418563995
3.006497955,0.146844635,-9.500892792
2.997067566,0.2302212524,-9.286837921
2.610720978,0.1101708984,-9.686955872
2.242636414,-0.1657054138,-9.335187378
2.022893372,-0.1478924561,-9.785750427
2.010618896,-0.2046244812,-9.628726959
1.925595703,0.008981323242,-9.513766022
2.341131592,0.137713623,-9.521849213
2.567311249,-0.001347198486,-9.547745361
2.587968292,-0.01811233521,-9.516610107
2.435585175,0.09131011963,-9.597741394
2.237397308,0.1724414063,-9.564959564
2.21733902,0.07903564453,-9.594148865
2.274520111,0.07469467163,-9.50104248
2.311044159,0.02739303589,-9.582024078
2.257156219,-0.0715512085,-9.572593689
2.318229218,0.00643661499,-9.5525354
2.332449646,0.05628295898,-9.55837326
2.284100189,0.1240919495,-9.536967773
2.324516144,-0.01930984497,-9.601184235
2.424059143,-0.09924362183,-9.530830536
2.271376648,0.02514770508,-9.590855713
2.135159912,0.02664459229,-9.588011627
2.250569916,0.1627116394,-9.554032288
2.435285797,-0.06391708374,-9.532926178
2.331102448,0.02574645996,-9.59115509
2.412982178,0.130229187,-9.508526917
2.366428986,0.05284011841,-9.575886841
2.279160461,0.07319778442,-9.558223572
2.409090271,0.07783813477,-9.549841003
2.396516418,0.07933502197,-9.608069916
2.42795105,0.06107299805,-9.489666138
2.346370697,0.1378633118,-9.555529175
2.26179657,0.1140628052,-9.554780731
2.288890228,0.03412902832,-9.552984467
2.315684509,0.09894424438,-9.550739136
2.201472015,0.08083190918,-9.530531158
2.279010773,0.1097218323,-9.634265442
2.224973145,0.1047821045,-9.604477386
2.27931015,0.1026864624,-9.565558319
2.239642639,0.102387085,-9.627529449
2.067949677,0.117355957,-9.584568787
2.04534668,0.2038760376,-9.609117737
2.268682251,0.2140548706,-9.551786957
2.35654953,0.09610015869,-9.635163574
2.318827972,0.01781295776,-9.552236023
2.082319794,0.01407073975,-9.586814117
2.00672699,0.2424957275,-9.617649994
2.091301117,0.1963916016,-9.611213379
2.252216492,0.1568737793,-9.599687347
2.16000824,-0.1742376709,-9.601333923
2.171983337,0.02395019531,-9.59355011
2.253713379,0.1592687988,-9.590256958
2.243833923,0.0592767334,-9.586215363
2.166893921,0.0983454895,-9.555678864
2.277513885,-0.007783813477,-9.633816376
2.289189606,0.06481521606,-9.458830261
2.288291473,0.06780899048,-9.605525208
2.285597076,0.07559280396,-9.61345871
2.504292297,0.1182540894,-9.454788666
2.306403809,-0.04550537109,-9.541608124
2.37406311,0.04655319214,-9.570647736
2.612666931,-0.07140151978,-9.514065399
2.402354279,0.01826202393,-9.475894775
2.188748474,0.09295669556,-9.574389954
2.26179657,0.04355941772,-9.506281586
2.60578125,-0.09669891357,-9.647288361
2.61865448,0.09520202637,-9.463919678
2.455793152,0.07499404907,-9.465566254
2.414329376,0.1318757629,-9.555529175
2.537223816,0.06616241455,-9.45658493
2.540367279,0.0636177063,-9.577533417
2.590662689,-0.03577560425,-9.406139832
2.648741913,0.1287322998,-9.505533142
2.706671448,0.0470022583,-9.47305069
2.387086029,0.1871109009,-9.457033997
2.525997162,0.1314266968,-9.574539642
2.339335327,0.1240919495,-9.465416565
2.524350586,0.007484436035,-9.485325165
2.44785965,0.06855743408,-9.539362793
2.596799927,0.1899549866,-9.487420807
2.600093079,0.1300794983,-9.473649445
2.517015839,0.06137237549,-9.564211121
2.580633545,0.0636177063,-9.424701233
2.421514435,0.1820214844,-9.600884857
2.50519043,0.0853225708,-9.520801392
2.401605835,0.09370513916,-9.445058899
2.565065918,0.03951782227,-9.485325165
2.597847748,0.09639953613,-9.485175476
2.646197205,-0.03068618774,-9.512718201
2.702779541,0.0217048645,-9.459129639
2.668800201,0.1207987976,-9.521998901
2.548749847,0.05897735596,-9.440568237
2.684966583,0.03891906738,-9.507179718
2.566413116,0.1215472412,-9.445507965
2.595901794,0.02439926147,-9.514215088
2.621797943,-0.007484436035,-9.50104248
2.548749847,0.0245489502,-9.452842712
2.662513275,0.08996292114,-9.499994659
2.667902069,-0.01017883301,-9.499246216
2.673889618,0.05837860107,-9.501790924
2.57539444,-0.002694396973,-9.458381195
2.585722961,0.1193019104,-9.544452209
2.628234558,0.04760101318,-9.450447693
2.667003937,0.06376739502,-9.438921661
2.546354828,0.07005432129,-9.559870148
2.623743896,0.1169068909,-9.389075317
2.612666931,-0.007484436035,-9.492510223
2.625091095,0.04595443726,-9.53966217
2.65263382,0.1766326904,-9.4543396
2.365680542,-0.02574645996,-9.493408356
2.673739929,-0.1689985657,-9.427545319
2.590213623,0.228874054,-9.60402832
2.527044983,0.07020401001,-9.477391663
2.440075836,0.2851570129,-9.420659637
2.613265686,0.03772155762,-9.538464661
2.601889343,0.1348695374,-9.493707733
2.545606384,0.08741821289,-9.482780457
2.547702026,0.1579216003,-9.529633026
2.351609802,0.1595681763,-9.52918396
2.546354828,0.04430786133,-9.470505981
2.577939148,0.1022373962,-9.557325439
2.51806366,0.1585203552,-9.476194153
2.561473389,0.09205856323,-9.51870575
2.548600159,0.1249900818,-9.489666138
2.454595642,0.1251397705,-9.481283569
2.431992645,0.1663041687,-9.549691315
2.448757782,0.1052311707,-9.535321198
2.492915955,0.121098175,-9.52798645
2.495610352,0.1799258423,-9.529333649
2.508782959,0.1290316772,-9.549391937
2.481539612,0.1234931946,-9.455686798
2.504292297,0.1110690308,-9.514813843
2.425256653,0.1648072815,-9.498198395
2.504142609,0.116308136,-9.547445984
2.553689575,0.2585124207,-9.445657654
2.654430084,0.1076261902,-9.471703491
2.421215057,-0.001496887207,-9.554481354
2.435585175,0.139360199,-9.495503998
2.45130249,0.1675016785,-9.526489563
2.47585144,0.01826202393,-9.523495789
2.556982727,0.1336720276,-9.480235748
2.573747864,0.09205856323,-9.555229797
2.506837006,0.09969268799,-9.486223297
2.545007629,0.1853146362,-9.511820068
2.495011597,0.1058299255,-9.52214859
2.503693542,0.1175056458,-9.468709717
2.56716156,0.1842668152,-9.524693298
2.473755798,0.1384620667,-9.50463501
2.516267395,0.08741821289,-9.526639252
2.498005371,0.1261875916,-9.472152557
2.499502258,0.1463955688,-9.527537384
2.509381714,0.1236428833,-9.509425049
2.599644012,0.07065307617,-9.479487305
2.540516968,0.1243913269,-9.527687073
2.556084595,0.1579216003,-9.521549835
2.564766541,0.04490661621,-9.46721283
2.605182495,0.132923584,-9.472901001
2.500550079,0.1193019104,-9.544152832
2.600542145,0.0773890686,-9.553583221
2.546803894,0.07364685059,-9.455387421
2.583477631,0.1513352966,-9.507030029
2.556833038,0.04221221924,-9.514514465
2.552941132,0.1050814819,-9.49879715
2.595003662,0.1574725342,-9.460476837
2.555934906,0.1318757629,-9.503287811
2.571203156,0.04535568237,-9.498348083
2.613415375,0.2061213684,-9.470206604
2.541115723,0.07514373779,-9.497449951
2.56835907,0.1375639343,-9.501641235
2.544558563,0.204175415,-9.498497772
2.605631561,0.01631607056,-9.493857422
2.645149384,0.1052311707,-9.500593414
2.532284088,0.1660047913,-9.500743103
2.575244751,0.1802252197,-9.556277618
2.643053741,0.1059796143,-9.477092285
2.641856232,-0.007783813477,-9.571396179
2.475102997,0.02993774414,-9.397457886
2.56596405,0.2192939758,-9.513766022
2.631228333,0.02469863892,-9.477391663
2.673290863,0.1300794983,-9.517957306
2.590063934,0.1419049072,-9.425898743
2.594853973,0.06271957397,-9.5233461
2.592758331,0.07888595581,-9.496102753
2.599494324,0.07963439941,-9.515262909
2.567610626,0.1878593445,-9.461524658
2.54381012,0.1588197327,-9.436975708
2.696043549,0.1737886047,-9.657616882
2.727927246,0.1052311707,-9.387129364
2.572700043,0.1996847534,-9.479636993
2.508932648,0.05224136353,-9.536967773
2.595752106,0.08517288208,-9.469607849
2.490371246,0.1013392639,-9.487869873
2.392025757,0.03592529297,-9.538464661
2.590662689,0.1110690308,-9.499246216
2.572849731,0.09804611206,-9.43323349
2.582729187,0.170944519,-9.530531158
2.55309082,0.03412902832,-9.475146332
2.495310974,0.09355545044,-9.514813843
2.543660431,0.08487350464,-9.516161041
2.563718719,0.07424560547,-9.457932129
2.534828796,0.1517843628,-9.577383728
2.552492065,0.06541397095,-9.434580688
2.614313507,0.2225871277,-9.50807785
2.560724945,0.02275268555,-9.526040497
2.482737122,0.03532653809,-9.460776215
2.427202606,0.09684860229,-9.621990967
2.461631012,0.04640350342,-9.425749054
2.51686615,0.1179547119,-9.53621933
2.572700043,0.1062789917,-9.433532867
2.553689575,0.07394622803,-9.484277344
2.5414151,0.08801696777,-9.565258942
2.519710236,0.03817062378,-9.463470612
2.529140625,0.07559280396,-9.528734894
2.561922455,0.03248245239,-9.507179718
2.49695755,0.1049317932,-9.503736877
2.534828796,-0.01751358032,-9.499545593
2.508932648,0.1239422607,-9.51167038
2.506088562,0.05733078003,-9.525142365
2.575843506,0.1116677856,-9.472601624
2.66550705,0.1121168518,-9.445657654
2.618953857,0.0773890686,-9.51391571
2.472707977,0.09101074219,-9.519753571
2.451003113,0.04445755005,-9.504335632
2.42795105,0.03802093506,-9.546847229
2.565365295,0.05313949585,-9.478140106
2.611170044,0.1055305481,-9.495953064
2.604284363,0.01347198486,-9.53621933
2.615810394,0.1178050232,-9.445507965
2.410886536,0.139360199,-9.570048981
2.460882568,-0.1604663086,-9.473649445
2.349214783,0.09714797974,-9.535171509
2.5812323,0.2189945984,-9.489815826
2.538571014,-0.09265731812,-9.491462402
2.703977051,0.05044509888,-9.540260925
2.718047791,0.1005908203,-9.456435242
2.400408325,0.04430786133,-9.550140381
2.389930115,-0.009430389404,-9.533375244
2.35774704,0.04670288086,-9.4835289
2.615810394,0.12753479,-9.517807617
2.757415924,0.01766326904,-9.449250183
2.731370087,0.1016386414,-9.468110962
2.557132416,0.07095245361,-9.568552094
2.498604126,-0.01332229614,-9.485774231
2.42555603,0.04640350342,-9.549841003
2.528092804,0.01945953369,-9.492659912
2.561623077,0.09595046997,-9.531279602
2.698139191,0.06301895142,-9.465266876
2.618055725,0.02649490356,-9.452693024
2.420466614,0.04400848389,-9.52095108
2.418370972,0.07723937988,-9.557774506
2.581082611,-0.02874023438,-9.478140106
2.592758331,0.1471440125,-9.543105011
2.627486115,-0.04655319214,-9.42739563
2.545456696,0.08652008057,-9.502539368
2.65487915,0.07170089722,-9.593250732
2.592309265,0.01631607056,-9.415420532
2.486179962,0.2109114075,-9.569749603
2.605631561,0.01616638184,-9.46481781
2.650538177,0.00628692627,-9.507928162
2.549348602,0.06975494385,-9.494905243
2.548600159,0.05403762817,-9.474697266
2.623743896,0.05224136353,-9.504335632
2.519261169,0.07679031372,-9.48936676
2.57883728,0.06945556641,-9.52454361
2.576591949,0.001047821045,-9.465416565
2.515369263,0.06331832886,-9.519454193
2.485581207,0.043409729,-9.527387695
2.476749573,-0.01631607056,-9.511820068
2.585124207,0.06466552734,-9.49295929
2.619552612,0.1110690308,-9.470356293
2.636617126,0.04326004028,-9.555978241
2.614762573,0.07080276489,-9.428144073
2.436932373,0.04894821167,-9.528734894
2.436632996,0.02829116821,-9.555080109
2.48872467,0.01930984497,-9.502539368
2.579286346,0.06676116943,-9.500144348
2.607876892,0.06197113037,-9.475146332
2.466870117,-0.03697311401,-9.531878357
2.549198914,0.02874023438,-9.484427032
2.583627319,0.06182144165,-9.462123413
2.651286621,0.08996292114,-9.539811859
2.606829071,0.0505947876,-9.459878082
2.570454712,0.07349716187,-9.512867889
2.466720428,0.08637039185,-9.499545593
2.622247009,-0.03353027344,-9.518556061
2.472707977,0.06780899048,-9.518106995
2.408790894,-0.004939727783,-9.476343842
2.546504517,0.06077362061,-9.458530884
2.70876709,0.07110214233,-9.540410614
2.632575531,0.06511459351,-9.465117188
2.49935257,0.01122665405,-9.52214859
2.503693542,0.1380130005,-9.548194427
2.563868408,0.04670288086,-9.530680847
2.603685608,0.02020797729,-9.429640961
2.42091568,0.04415817261,-9.638756104
2.432292023,-0.033230896,-9.419611816
2.581082611,0.08771759033,-9.559870148
2.763104095,0.09969268799,-9.341324615
2.753524017,0.1568737793,-9.549391937
2.561473389,-0.07574249268,-9.576934662
2.516417084,-0.004939727783,-9.492360535
2.470762024,0.09654922485,-9.531429291
2.553390198,-0.02035766602,-9.457333374
2.526745605,0.180075531,-9.53966217
2.615061951,-0.05418731689,-9.486073608
2.489323425,-0.02395019531,-9.446406097
2.511627045,0.07873626709,-9.539213104
2.593656464,0.0217048645,-9.427096252
2.638862457,0.04879852295,-9.490863647
2.638413391,0.1052311707,-9.502838745
2.59994339,0.06885681152,-9.526938629
2.656974792,0.05852828979,-9.443861389
2.56835907,-0.04011657715,-9.492659912
2.343376923,-0.0679586792,-9.556427307
2.399210815,-0.03951782227,-9.569749603
2.489024048,-0.06556365967,-9.468709717
2.654729462,0.09669891357,-9.458081818
2.739004211,0.1014889526,-9.440119171
2.77193573,0.1399589539,-9.457183685
2.82342865,0.02619552612,-9.460776215
2.667153625,0.06810836792,-9.418563995
2.523003387,-0.06182144165,-9.514664154
2.351160736,-0.05613327026,-9.582024078
2.431094513,0.1062789917,-9.557175751
2.553689575,-0.102387085,-9.463470612
2.560575256,0.09639953613,-9.482930145
2.788551178,0.05748046875,-9.396110687
2.824476471,0.01481918335,-9.488917694
2.833158417,0.1249900818,-9.402397614
2.505489807,-0.01706451416,-9.535470886
2.233505402,-0.1832189941,-9.564061432
2.390079803,0.04595443726,-9.460327148
2.707419891,0.222437439,-9.416468353
2.881058807,-0.02320175171,-9.49879715
2.838846588,0.1288819885,-9.457632751
2.676434326,0.06167175293,-9.445657654
2.594255219,-0.03143463135,-9.557026062
2.514171753,0.009430389404,-9.568252716
2.409838715,-0.01272354126,-9.434281311
2.387086029,0.09460327148,-9.626930695
2.664758606,-0.2255809021,-9.413474579
2.827021179,0.1757345581,-9.463919678
2.736160126,-0.02005828857,-9.428892517
2.670746155,0.1305285645,-9.507329407
2.596051483,-0.04236190796,-9.533075867
2.601290588,-0.05418731689,-9.432335358
2.456990662,0.007783813477,-9.559271393
2.420017548,0.04355941772,-9.44490921
2.701132965,0.1017883301,-9.507778473
2.740650787,0.0556842041,-9.44850174
2.721340942,-0.07873626709,-9.466314697
2.547702026,0.01272354126,-9.46945816
2.518662415,0.02664459229,-9.506580963
2.674488373,0.05718109131,-9.505084076
2.674638062,-0.007185058594,-9.455686798
2.737806702,0.04655319214,-9.474098511
2.636766815,0.0296383667,-9.504485321
2.574795685,-0.03158432007,-9.47065567
2.516566772,-0.01945953369,-9.555828552
2.583178253,0.03308120728,-9.492210846
2.607577515,-0.03547622681,-9.484277344
2.645897827,0.07723937988,-9.432185669
2.731669464,-0.03562591553,-9.404044189
2.607727203,0.05763015747,-9.536369019
2.561772766,-0.01886077881,-9.485774231
2.5613237,0.07783813477,-9.480684814
2.758314056,0.06167175293,-9.508377228
2.675536194,-0.06511459351,-9.435478821
2.531535645,-0.0303868103,-9.522597656
2.479743347,0.0339793396,-9.469158783
2.584974518,0.07200027466,-9.505383453
2.815046082,-0.05298980713,-9.44610672
2.86908371,0.06451583862,-9.451495514
2.746039581,0.01137634277,-9.504934387
2.453248444,-0.03113525391,-9.552385712
2.452799377,-0.1466949463,-9.473799133
2.450554047,0.09879455566,-9.598040771
2.585573273,-0.02035766602,-9.411229248
2.685715027,0.07469467163,-9.457632751
2.77313324,0.05388793945,-9.432634735
2.89827301,0.08831634521,-9.469607849
2.738405457,0.04924758911,-9.432335358
2.590063934,-0.05583389282,-9.464668121
2.340233459,-0.02918930054,-9.587562561
2.305954742,0.04326004028,-9.547146606
2.550097046,0.05313949585,-9.520352325
2.731669464,0.006885681152,-9.464668121
2.753823395,0.07394622803,-9.49176178
2.670297089,-0.06032455444,-9.44850174
2.363135834,0.0462538147,-9.537566528
2.350262604,-0.0383203125,-9.596394196
2.493365021,-0.01766326904,-9.514664154
2.641107788,0.00853225708,-9.470356293
2.7391539,0.07319778442,-9.477241974
2.737657013,0.03876937866,-9.51511322
2.537373505,0.01511856079,-9.517208862
2.40923996,0.006137237549,-9.520202637
2.380050659,0.08038284302,-9.55493042
2.533331909,-0.003592529297,-9.474547577
2.582280121,0.02649490356,-9.528585205
2.66071701,0.07439529419,-9.480834503
2.677931213,0.07963439941,-9.477541351
2.59290802,0.06810836792,-9.543105011
2.606080627,-0.02948867798,-9.526040497
2.448308716,0.05882766724,-9.479636993
2.408341827,0.1047821045,-9.519454193
2.552641754,-0.01122665405,-9.461374969
2.643053741,0.08652008057,-9.51631073
2.586321716,0.03532653809,-9.493857422
2.551294556,0.03966751099,-9.511221313
2.571053467,0.03502716064,-9.485624542
2.590063934,-0.008232879639,-9.477840729
2.686014404,0.04715194702,-9.504036255
2.562820587,0.1327738953,-9.494456177
2.575843506,0.04026626587,-9.477541351
2.607278137,0.06256988525,-9.53038147
2.539469147,0.02469863892,-9.486522675
2.481988678,0.0520916748,-9.483678589
2.659070435,0.08232879639,-9.47185318
2.601290588,-0.02514770508,-9.522597656
2.548151093,0.01526824951,-9.471703491
2.576891327,0.0592767334,-9.492061157
2.597398682,-0.02035766602,-9.506431274
2.463427277,0.07050338745,-9.53038147
2.406545563,-0.01152603149,-9.51750824
2.311642914,-0.08292755127,-9.515412598
2.537822571,0.07020401001,-9.495054932
2.76729538,0.06586303711,-9.490863647
2.634072418,0.01826202393,-9.475745087
2.489323425,-0.005837860107,-9.493558044
2.377056885,0.122744751,-9.532327423
2.423011322,0.08472381592,-9.590107269
2.593955841,-0.02619552612,-9.477092285
2.763403473,0.04430786133,-9.517059174
2.570305023,0.09654922485,-9.512119446
2.51686615,0.1413061523,-9.497000885
2.521656189,-0.01167572021,-9.54205719
2.547402649,-0.09370513916,-9.469907227
2.44546463,0.06017486572,-9.525292053
2.459235992,-0.001646575928,-9.507778473
2.507884827,0.1351689148,-9.514813843
2.741997986,0.0245489502,-9.420959015
2.676584015,0.01721420288,-9.470805359
2.652334442,0.06197113037,-9.499545593
2.544408875,0.07424560547,-9.506281586
2.477198639,0.06735992432,-9.519903259
2.538720703,0.03203338623,-9.493707733
2.642604675,0.09774673462,-9.501341858
2.70876709,0.07439529419,-9.443112946
2.569257202,0.03547622681,-9.579030304
2.547851715,-0.06406677246,-9.433981934
2.514321442,0.1484912109,-9.50463501
2.449506226,-0.01481918335,-9.564510498
2.372117157,-0.1110690308,-9.525292053
2.647694092,-0.02275268555,-9.511371002
2.682571564,0.06077362061,-9.438173218
2.530487823,0.1643582153,-9.488618317
2.694846039,0.05792953491,-9.480834503
2.68885849,-0.002395019531,-9.511969757
2.664608917,0.0137713623,-9.473499756
2.532284088,0.1278341675,-9.464967499
2.567610626,-0.01466949463,-9.535470886
2.420466614,-0.05852828979,-9.526190186
2.607427826,0.1249900818,-9.464219055
2.657573547,0.1062789917,-9.505682831
2.669099579,-0.04071533203,-9.44850174
2.570903778,0.07768844604,-9.450447693
2.42795105,0.02574645996,-9.578581238
2.523602142,-0.03921844482,-9.491312714
2.579885101,0.05448669434,-9.500743103
2.670746155,0.0860710144,-9.476643219
2.739303589,0.001796264648,-9.478738861
2.69469635,0.07903564453,-9.469607849
2.581831055,0.09969268799,-9.533674622
2.579286346,-0.08622070313,-9.471404114
2.3635849,0.09879455566,-9.585616608
2.495310974,-0.04326004028,-9.473350067
2.59290802,0.07349716187,-9.483079834
2.785407715,0.1112187195,-9.519903259
2.677033081,0.02634521484,-9.450896759
2.601440277,-0.004041595459,-9.494156799
2.505938873,0.07529342651,-9.50104248
2.52734436,-0.0005987548828,-9.572593689
2.5015979,-0.100740509,-9.473350067
2.375110931,0.03667373657,-9.54909256
2.468516693,-0.06077362061,-9.544901276
2.542013855,0.03697311401,-9.459578705
2.728226624,0.1128652954,-9.45074707
2.690056,0.1338217163,-9.463470612
2.538720703,0.0390687561,-9.538614349
2.456541595,0.02694396973,-9.576485596
2.465971985,0.1203497314,-9.509874115
2.501448212,-0.02035766602,-9.497749329
2.498454437,0.1342707825,-9.568103027
2.610122223,0.06047424316,-9.519154816
2.573598175,0.01556762695,-9.436826019
2.43498642,0.1074765015,-9.567055206
2.498903503,-0.01601669312,-9.493558044
2.578537903,0.06631210327,-9.457932129
2.537523193,0.09011260986,-9.532477112
2.652035065,0.01077758789,-9.476643219
2.61281662,-0.01212478638,-9.427695007
2.398312683,0.06271957397,-9.654473419
2.389930115,-0.03293151855,-9.475445709
2.519710236,0.1595681763,-9.45897995
2.525548096,-0.004041595459,-9.5525354
2.688110046,0.05388793945,-9.50583252
2.569855957,0.1095721436,-9.498198395
2.35190918,0.1044827271,-9.49056427
2.512375488,-0.04550537109,-9.577084351
2.568808136,0.05673202515,-9.47305069
2.573747864,0.1360670471,-9.503886566
2.680026855,0.04011657715,-9.454788666
2.650089111,0.1314266968,-9.510772247
2.645897827,0.1178050232,-9.481133881
2.535726929,-0.0260458374,-9.516161041
2.562072144,0.1001417542,-9.463021545
2.504591675,0.1294807434,-9.586065674
2.445015564,0.008981323242,-9.529034271
2.679128723,0.1070274353,-9.412726135
2.685864716,0.1327738953,-9.49295929
2.650837555,0.04999603271,-9.446855164
2.583477631,-0.01466949463,-9.547595673
2.453248444,0.1350192261,-9.517358551
2.453847198,0.03891906738,-9.482780457
2.530338135,0.04715194702,-9.503138123
2.570305023,0.1020877075,-9.483229523
2.674338684,0.04954696655,-9.460327148
2.638712769,0.2344125366,-9.532177734
2.633323975,0.1803749084,-9.424102478
2.450404358,-0.01077758789,-9.574389954
2.195783844,-0.1667532349,-9.80880249
2.04414917,0.4279600525,-9.505533142
2.837649078,0.03742218018,-9.576635284
3.41904007,0.6062393188,-9.049581299
3.391048279,-0.04131408691,-9.149573364
3.541635132,0.3879931641,-8.966204681
3.59447525,0.5791456604,-9.254954224
2.812501373,0.09699829102,-9.637558594
2.203118591,-0.1184037781,-9.650132446
3.105891266,0.4411326599,-9.198820953
2.485880585,0.08202941895,-9.570198669
2.427052917,-0.5956114197,-9.52214859
2.478396149,0.2074685669,-9.391320648
2.676284637,0.589025116,-9.206904144
2.785557404,-0.1127156067,-9.63800766
2.894530792,-0.1272354126,-9.24013504
2.974913635,-0.2369572449,-9.536668396
2.547103271,0.0462538147,-9.398206329
2.499651947,0.02230361938,-9.530680847
2.693349152,0.0715512085,-9.518406372
2.843786316,-0.2296224976,-9.453740845
2.732567596,0.05164260864,-9.40045166
2.907553711,0.04086502075,-9.391620026
2.86668869,0.02215393066,-9.40284668
2.878214722,-0.09684860229,-9.360035706
3.007246399,0.076640625,-9.338330841
2.888842621,-0.0477507019,-9.425449677
2.896027679,-0.0889151001,-9.448950806
2.711760864,0.126486969,-9.462572479
2.791245575,0.06691085815,-9.374106445
2.650987244,0.1134640503,-9.382638702
2.730771332,0.1164578247,-9.532028046
2.805615692,0.01017883301,-9.492659912
2.824177094,0.1362167358,-9.407337341
2.771636353,0.05478607178,-9.509125671
2.589764557,-0.005239105225,-9.561367035
2.591560822,-0.04969665527,-9.3747052
2.758613434,0.1158590698,-9.490863647
2.762355652,0.1266366577,-9.462572479
2.690355377,0.05792953491,-9.465266876
2.631378021,0.04475692749,-9.480385437
2.648292847,0.1944456482,-9.437424774
2.703827362,0.1761836243,-9.529034271
2.692600708,0.01751358032,-9.481882324
2.632425842,0.04595443726,-9.532177734
2.514022064,0.02275268555,-9.504185944
2.370320892,0.05763015747,-9.512119446
2.524200897,0.06406677246,-9.534423065
2.644550629,0.2341131592,-9.515262909
2.825374603,-0.01841171265,-9.459279327
2.364333344,-0.09894424438,-9.513167267
2.252515869,-0.1368154907,-9.536967773
2.52509903,0.1585203552,-9.47305069
2.607577515,0.4399351501,-9.491462402
2.113604736,0.7274871826,-8.002957764
2.570754089,-0.4953199768,-9.852511597
2.693199463,-0.2088157654,-9.670490112
2.722089386,-0.01511856079,-9.461524658
2.452949066,-0.6012995911,-9.678423615
2.442470856,0.03727249146,-9.859397278
2.512525177,-0.3106040955,-9.20151535
1.856439514,-0.1206491089,-9.286688232
2.595153351,0.3583547974,-9.755812683
2.608625336,-0.007035369873,-9.145232391
2.896776123,-0.2112107849,-9.558522949
2.367925873,-0.2347119141,-9.710007935
2.269430695,0.4902305603,-9.364376678
2.562970276,0.347277832,-9.539213104
2.362836456,0.06122268677,-9.508377228
2.660267944,-0.1187031555,-9.506580963
2.793939972,-0.02439926147,-9.587263184
2.626587982,0.07394622803,-9.264384613
2.923570404,-0.1026864624,-9.495803375
2.453547821,0.003592529297,-9.781559143
2.693947906,-0.4763095093,-9.664652252
2.001787262,-0.3863465881,-10.22044647
1.658251648,-0.08831634521,-9.288634186
1.657952271,-0.1151106262,-9.399852905
1.206191711,0.4953199768,-8.959169312
0.8448431396,0.5120851135,-9.912087708
2.042652283,-0.2752775574,-9.883946228
2.341880035,-0.8075706482,-9.433832245
2.002984772,-0.4034111023,-9.85326004
2.171983337,0.1315763855,-9.577533417
2.023192749,-0.1487905884,-9.62393692
2.155816956,-0.04670288086,-9.542655945
2.250420227,-0.3031196594,-9.794282684
2.116299133,-0.2239343262,-9.487869873
2.224524078,-0.1637594604,-9.668693848
2.144440613,-0.133971405,-9.581125946
2.223326569,-0.1390608215,-9.557475128
2.344574432,-0.1417552185,-9.530680847
2.414928131,-0.2285746765,-9.604477386
2.477348328,-0.00419128418,-9.502838745
2.391576691,-0.2724334717,-9.522747345
2.13306427,0.01332229614,-9.606722717
2.345622253,-0.03622467041,-9.557475128
2.554587708,-0.2165995789,-9.473200378
2.628234558,-0.1887574768,-9.554331665
2.355651398,-0.1022373962,-9.511221313
2.222428436,-0.03787124634,-9.586065674
2.265838165,-0.05313949585,-9.539213104
2.400857391,-0.1489402771,-9.551786957
2.490820313,-0.1348695374,-9.533524933
2.335892487,-0.1032852173,-9.594448242
2.240091705,-0.200433197,-9.570198669
2.237397308,-0.1031355286,-9.564809875
2.33200058,-0.05119354248,-9.559121704
2.320474548,-0.03697311401,-9.564211121
2.502945099,-0.1571731567,-9.575437775
2.35774704,-0.1374142456,-9.56196579
2.286794586,-0.1258882141,-9.615254974
2.246678009,-0.08068222046,-9.509874115
2.212998047,-0.08038284302,-9.610315247
2.301464081,-0.0477507019,-9.573192444
2.394420776,-0.1082249451,-9.560319214
2.385738831,-0.1185534668,-9.525292053
2.306703186,-0.1941462708,-9.616302795
2.253414001,-0.0339793396,-9.544302521
2.361938324,-0.1022373962,-9.631121979
2.36478241,-0.199385376,-9.512119446
2.328557739,-0.05269042969,-9.571396179
2.25236618,-0.06571334839,-9.557924194
2.349214783,-0.05852828979,-9.588460693
2.412383423,-0.1362167358,-9.553433533
2.412832489,-0.07843688965,-9.58411972
2.277663574,-0.1637594604,-9.513316956
2.175725555,-0.0628692627,-9.568402405
2.430196381,-0.04640350342,-9.652826843
2.360441437,-0.2089654541,-9.467961273
2.212099915,-0.1246907043,-9.617799683
2.262844391,-0.09744735718,-9.526639252
2.210752716,-0.1176553345,-9.568402405
2.425106964,-0.1218466187,-9.625433807
2.196831665,-0.1314266968,-9.420509949
2.125430145,-0.04116439819,-9.710606689
2.214794312,-0.1803749084,-9.508377228
2.530637512,-0.05194198608,-9.674980774
2.632425842,-0.357456665,-9.41332489
2.814447327,-0.08352630615,-9.41332489
2.459685059,0.03263214111,-9.57124649
2.405497742,-0.1002914429,-9.520502014
2.564766541,0.07544311523,-9.576485596
2.485132141,-0.1160087585,-9.51391571
2.300715637,0.2791694641,-9.618997192
2.482587433,0.02993774414,-9.507928162
2.465971985,0.02080673218,-9.473799133
2.419867859,-0.07514373779,-9.539362793
2.621199188,0.1019380188,-9.38997345
2.714904327,0.3543132019,-9.530082092
2.335293732,-0.08502319336,-9.600136414
2.484383698,0.212258606,-9.399553528
2.722688141,-0.07454498291,-9.528734894
2.314487,0.1052311707,-9.520502014
2.572700043,-0.09160949707,-9.503736877
2.563269653,0.00643661499,-9.462871857
2.705324249,0.01616638184,-9.390721893
2.544109497,0.004790039063,-9.684710541
2.686164093,0.1005908203,-9.361233215
2.575843506,-0.02859054565,-9.394164734
2.58467514,-0.005089416504,-9.680818634
2.506986694,0.133971405,-9.281748505
2.834206238,-0.06646179199,-9.612560577
2.673141174,-0.09445358276,-9.528136139
2.81399826,0.01945953369,-9.474098511
2.561922455,0.05418731689,-9.509425049
2.702629852,0.05418731689,-9.534572754
2.423310699,-0.07933502197,-9.453890533
2.607727203,-0.09415420532,-9.4835289
3.09840683,-0.02110610962,-9.608818359
2.860701141,-0.1877096558,-9.383985901
2.631677399,0.06227050781,-9.460327148
2.713557129,0.02020797729,-9.484277344
2.408641205,-0.08666976929,-9.33024765
2.746937714,-0.1092727661,-9.53741684
2.679877167,-0.2130070496,-9.517807617
2.909649353,-0.08696914673,-9.401050415
2.714006195,-0.07110214233,-9.424551544
2.807411957,-0.3019221497,-9.581724701
2.808908844,-0.003143463135,-9.484876099
2.62688736,0.007334747314,-9.312135315
2.874023438,0.05912704468,-9.524842987
2.931803284,-0.2628533936,-9.612560577
2.593806152,-0.1833686829,-9.313632202
2.656825104,-0.2339634705,-9.498497772
2.846630402,0.1552272034,-9.360484772
2.505489807,-0.1573228455,-9.278605042
2.833457794,0.07080276489,-9.471404114
2.958896942,-0.185464325,-9.329349518
2.659669189,0.0672102356,-9.432335358
2.796185303,-0.007634124756,-9.475595398
2.618355103,-0.1715432739,-9.413025513
2.716550903,-0.04715194702,-9.388326874
2.707719269,-0.08771759033,-9.612410889
2.77073822,-0.1577719116,-9.410480804
2.716101837,0.03577560425,-9.269923096
2.87611908,-0.01706451416,-9.473799133
2.782114563,-0.08517288208,-9.50463501
2.669249268,-0.129181366,-9.454788666
2.546354828,-0.04670288086,-9.508826294
2.509980469,0.07529342651,-9.413025513
2.733016663,-0.1166075134,-9.424401855
2.862198029,-0.1353186035,-9.427695007
2.731669464,0.1869612122,-9.296717377
2.824326782,-0.1416055298,-9.572294312
2.700683899,-0.08442443848,-9.556576996
2.534230042,-0.03861968994,-9.396709442
2.643353119,0.05867797852,-9.367220764
2.717149658,-0.1145118713,-9.421707458
2.807411957,0.02185455322,-9.501491547
2.774779816,-0.09475296021,-9.416019287
2.792892151,0.0470022583,-9.390572205
2.743045807,-0.02335144043,-9.475146332
2.542163544,-0.1206491089,-9.475745087
2.672093353,-0.08442443848,-9.501341858
2.837349701,-0.1020877075,-9.509874115
2.72044281,0.01916015625,-9.363179169
2.827470245,-0.06706054688,-9.419013062
2.662064209,0.00643661499,-9.505533142
2.802023163,-0.1236428833,-9.43562851
2.688110046,-0.05448669434,-9.440418549
2.74618927,-0.05598358154,-9.439969482
2.72867569,-0.1203497314,-9.427245941
2.794389038,-0.04610412598,-9.48233139
2.840493164,-0.08352630615,-9.428443451
2.756966858,0.005538482666,-9.458530884
2.775528259,-0.1450483704,-9.424551544
2.750380554,-0.04610412598,-9.43323349
2.687960358,0.006885681152,-9.407187653
2.844983826,-0.126486969,-9.481283569
2.740501099,-0.02439926147,-9.38293808
2.789598999,-0.07858657837,-9.51870575
2.712509308,-0.03667373657,-9.379794617
2.781515808,-0.1734892273,-9.56196579
2.768193512,-0.0549357605,-9.423054657
2.705473938,-0.01886077881,-9.449699249
2.711311798,-0.06780899048,-9.474697266
2.731220398,-0.05703140259,-9.348509674
2.728526001,-0.01392105103,-9.452243958
2.721340942,-0.1213975525,-9.5034375
2.762804718,-0.06691085815,-9.35135376
2.811004486,-0.1216969299,-9.479786682
2.734663239,-0.04924758911,-9.427994385
2.774181061,-0.08068222046,-9.478140106
2.74035141,-0.1595681763,-9.434580688
2.816243591,-0.005388793945,-9.411378937
2.789898376,-0.107177124,-9.420809326
2.768043823,-0.04520599365,-9.472152557
2.795736237,-0.08652008057,-9.417366486
2.767744446,-0.09490264893,-9.408534851
2.784509583,-0.02649490356,-9.461374969
2.750230865,-0.1140628052,-9.499246216
2.804418182,-0.07394622803,-9.397757263
2.814147949,-0.07439529419,-9.411678314
2.703677673,-0.02350112915,-9.454489288
2.785856781,-0.09235794067,-9.40988205
2.766546936,0.02649490356,-9.3946138
2.79304184,-0.1648072815,-9.457632751
2.783461761,-0.09026229858,-9.442963257
2.683469696,-0.04326004028,-9.389075317
2.761008453,-0.116308136,-9.477092285
2.76026001,-0.07035369873,-9.409133606
2.825673981,0.0137713623,-9.451196136
2.770588531,-0.03577560425,-9.395661621
2.805316315,-0.09879455566,-9.510023804
2.739752655,-0.1148112488,-9.397607574
2.749033356,-0.08577163696,-9.453890533
2.75442215,-0.1204994202,-9.547146606
2.81055542,-0.1124162292,-9.346414032
2.927013245,-0.0730480957,-9.420509949
2.711311798,-0.09445358276,-9.518556061
2.883753204,-0.09205856323,-9.364376678
2.94512558,0.06107299805,-9.348809052
2.583028564,-0.06301895142,-9.636660461
2.428100739,-0.2056723022,-9.559421082
2.636617126,-0.1353186035,-9.505533142
2.660267944,-0.06750961304,-9.470805359
2.794838104,0.09071136475,-9.353449402
2.952011261,0.1082249451,-9.474697266
2.813698883,0.0462538147,-9.400751038
2.772534485,0.1794767761,-9.519005127
2.550396423,-0.04355941772,-9.485474854
2.875370636,0.01496887207,-9.448950806
2.746937714,-0.1047821045,-9.47185318
2.721790009,0.04805007935,-9.379195862
2.801424408,-0.1139131165,-9.47065567
3.02940033,0.03487747192,-9.400900726
2.664908295,0.05284011841,-9.571545868
2.534529419,-0.05388793945,-9.440717926
2.564018097,0.1359173584,-9.460776215
2.675835571,0.139360199,-9.515861664
2.574496307,-0.2071691895,-9.514215088
2.527044983,0.04879852295,-9.524393921
2.466870117,0.06227050781,-9.570647736
2.433938599,-0.07798782349,-9.542206879
2.352358246,-0.05194198608,-9.488618317
2.395468597,0.05269042969,-9.544751587
2.292482758,0.02499801636,-9.546547852
2.284698944,-0.03787124634,-9.555529175
2.189047852,-0.04505630493,-9.564510498
2.136357422,-0.02649490356,-9.678573303
2.165097656,-0.03667373657,-9.585915985
2.167941742,0.0426612854,-9.619146881
2.133663025,0.05254074097,-9.627529449
2.012115784,0.08337661743,-9.585017853
1.998943176,0.1107696533,-9.637408905
1.839524689,-0.05044509888,-9.621242523
1.97978302,0.03697311401,-9.768236847
1.759291534,-0.01975891113,-9.672286377
1.879341888,-0.07604187012,-9.573940887
1.885179749,0.009580078125,-9.779463501
1.785037994,-0.001646575928,-9.580227814
1.786983948,0.02769241333,-9.671388245
1.911674652,0.04311035156,-9.677675171
2.021546173,0.02739303589,-9.661808167
1.988315277,0.04535568237,-9.586664429
2.044897614,-0.04565505981,-9.670190735
1.969454498,0.02859054565,-9.571845245
2.148631897,0.08337661743,-9.644593964
2.110012207,-0.01152603149,-9.544003143
2.179318085,-0.0245489502,-9.640851746
2.328707428,0.0896635437,-9.581575012
2.381547546,0.08487350464,-9.526190186
2.361040192,0.1170565796,-9.548493805
2.407443695,-0.03966751099,-9.564809875
2.431094513,-0.076640625,-9.594448242
2.456092529,0.1052311707,-9.524992676
2.320923615,0.03457809448,-9.446705475
2.3436763,-0.01481918335,-9.597442017
2.345622253,0.03218307495,-9.507179718
2.384391632,0.01002914429,-9.538314972
2.364632721,-0.02574645996,-9.560618591
2.449356537,0.0426612854,-9.49640213
2.437680817,0.04580474854,-9.587263184
2.436183929,0.004041595459,-9.484277344
2.40804245,-0.02859054565,-9.576635284
2.428400116,0.02395019531,-9.52095108
2.409689026,-0.05388793945,-9.532477112
2.383194122,-0.008681945801,-9.548942871
2.395917664,-0.01152603149,-9.579329681
2.414029999,-0.02185455322,-9.480385437
2.498903503,-0.03053649902,-9.577084351
2.386038208,-0.04730163574,-9.506281586
2.405048676,0.002245330811,-9.570647736
2.410437469,-0.0687071228,-9.570647736
2.385738831,-0.02185455322,-9.502090302
2.396516418,-0.02245330811,-9.575737152
2.428849182,-0.02709365845,-9.56196579
2.420316925,-0.02140548706,-9.518106995
2.449057159,0.03637435913,-9.563612366
2.384990387,-0.03936813354,-9.51047287
2.435136108,-0.01781295776,-9.568552094
2.409988403,-0.01766326904,-9.536967773
2.439327393,-0.01362167358,-9.510772247
2.42091568,-0.03098556519,-9.554032288
2.392923889,-0.06945556641,-9.54669754
2.423909454,0.05313949585,-9.512867889
2.529140625,-0.04086502075,-9.556876373
2.381846924,-0.03218307495,-9.566157074
2.585423584,0.1145118713,-9.530680847
2.434836731,-0.1898052979,-9.409732361
2.170785828,-0.03817062378,-9.616452484
2.303110657,-0.2477348328,-9.506880341
2.584076385,-0.03053649902,-9.498647461
2.672093353,0.01886077881,-9.414672089
2.463726654,-0.1508862305,-9.521400146
2.553988953,0.01945953369,-9.541159058
2.619103546,-0.1279838562,-9.44730423
2.727029114,0.05074447632,-9.468709717
2.701582031,-0.2064207458,-9.452243958
2.623594208,-0.03772155762,-9.451645203
2.729424133,0.04221221924,-9.479487305
2.70292923,-0.08113128662,-9.485025787
2.722538452,-0.1131646729,-9.501641235
2.633623352,-0.02903961182,-9.472152557
2.618355103,-0.1083746338,-9.498946838
2.595452728,-0.0470022583,-9.484127655
2.693199463,-0.08502319336,-9.436376953
2.702629852,0.001047821045,-9.41796524
2.633773041,-0.06451583862,-9.50927536
2.712658997,-0.08816665649,-9.470206604
2.573747864,-0.02499801636,-9.431137848
2.597997437,0.01002914429,-9.520202637
2.645897827,-0.03008743286,-9.511820068
2.757565613,-0.07469467163,-9.476044464
2.580783234,0.008981323242,-9.466913452
2.636018372,-0.05942642212,-9.524244232
2.647544403,-0.05658233643,-9.446705475
2.650687866,0.008831634521,-9.516161041
2.637814636,-0.0896635437,-9.486822052
2.537523193,-0.02469863892,-9.530531158
2.596051483,-0.05224136353,-9.444609833
2.651735687,-0.09580078125,-9.561217346
2.559078369,-0.01107696533,-9.449998627
2.580932922,0.02065704346,-9.495054932
2.604434052,-0.06960525513,-9.528585205
2.690954132,-0.09969268799,-9.485474854
2.530038757,-0.005688171387,-9.500593414
2.558180237,0.02409988403,-9.476343842
2.570454712,-0.01766326904,-9.526339874
2.727777557,-0.09415420532,-9.496102753
2.698139191,-0.02634521484,-9.491013336
2.620750122,-0.009580078125,-9.466763763
2.557581482,-0.08831634521,-9.49056427
2.584375763,-0.02784210205,-9.478439484
2.626288605,0.0520916748,-9.494306488
2.666255493,0.02290237427,-9.472152557
2.722987518,-0.03891906738,-9.463470612
2.645149384,0.007185058594,-9.514065399
2.602039032,-0.07379653931,-9.463171234
2.586471405,-0.1001417542,-9.569300537
2.578986969,0.05014572144,-9.481582947
2.680924988,0.04400848389,-9.443861389
2.725532227,-0.01811233521,-9.489516449
2.764600983,-0.04939727783,-9.456435242
2.594404907,0.01721420288,-9.484427032
2.522404633,-0.1086740112,-9.518256683
2.617756348,-0.0383203125,-9.479786682
2.601739655,0.001197509766,-9.452094269
2.707719269,-0.05194198608,-9.485325165
2.669997711,0.04385879517,-9.462572479
2.693049774,-0.05478607178,-9.437574463
2.622845764,0.01841171265,-9.512568512
2.587369537,-0.03502716064,-9.484277344
2.660417633,-0.02439926147,-9.455986176
2.59410553,-0.01047821045,-9.516610107
2.644999695,0.002395019531,-9.502838745
2.668201447,-0.04505630493,-9.545350342
2.599344635,-0.07080276489,-9.455387421
2.556383972,0.02619552612,-9.492360535
2.567760315,-0.1297801208,-9.51047287
2.623893585,-0.01826202393,-9.491612091
2.533331909,-0.02275268555,-9.527238007
2.542313232,-0.01481918335,-9.473350067
2.616558838,-0.05164260864,-9.466464386
2.63976059,-0.03338058472,-9.512568512
2.663561096,-0.04071533203,-9.495953064
2.558180237,-0.01197509766,-9.470056915
2.556234283,-0.02065704346,-9.497150574
2.615061951,-0.006735992432,-9.529633026
2.626438293,-0.1097218323,-9.448801117
2.638862457,-0.01481918335,-9.494306488
2.6011409,-0.005388793945,-9.481283569
2.537672882,-0.04011657715,-9.480235748
2.582729187,-0.02679428101,-9.527836761
2.624941406,-0.04580474854,-9.474547577
2.602338409,0.01242416382,-9.493408356
2.605631561,-0.0288899231,-9.485474854
2.584375763,-0.05673202515,-9.506431274
2.59874588,0.02065704346,-9.512718201
2.554887085,-0.04490661621,-9.533375244
2.61865448,-0.05403762817,-9.513017578
2.596799927,0.03547622681,-9.466464386
2.621648254,-0.05867797852,-9.541608124
2.45369751,-0.02544708252,-9.515262909
2.534978485,-0.03847000122,-9.496701508
2.561473389,-0.04460723877,-9.575288086
2.556383972,-0.0375718689,-9.517957306
2.534230042,-0.03008743286,-9.497749329
2.600542145,-0.03143463135,-9.521998901
2.550695801,0.01781295776,-9.525591431
2.624342651,-0.1176553345,-9.473799133
2.61161911,0.008382568359,-9.500743103
2.518512726,-0.03353027344,-9.507329407
2.550396423,-0.0217048645,-9.506281586
2.643951874,-0.08038284302,-9.521998901
2.542013855,0.02155517578,-9.451046448
2.596051483,0.02200424194,-9.496252441
2.628833313,-0.02679428101,-9.469607849
2.793490906,-0.05703140259,-9.460626526
2.610870667,0.001945953369,-9.522897034
2.499202881,-0.03367996216,-9.467961273
2.47944397,-0.02020797729,-9.53382431
2.495161285,0.04146377563,-9.508377228
2.543660431,0.01212478638,-9.454040222
2.429597626,-0.08801696777,-9.485325165
2.359243927,0.1499880981,-9.697434082
2.255809021,0.1249900818,-9.529782715
2.256407776,0.093256073,-9.57947937
2.129322052,-0.04026626587,-9.603728943
2.015109558,0.01407073975,-9.655371552
1.940265198,-0.05328918457,-9.631271667
1.775158539,-0.2818638611,-9.623787231
1.794169006,-0.1212478638,-9.798024902
1.832489319,0.03936813354,-9.736802216
1.860331421,0.09145980835,-9.542356567
1.804796906,-0.02350112915,-9.625583496
1.876946869,0.00419128418,-9.789043579
1.976340179,0.01122665405,-9.591903534
1.924248505,0.04221221924,-9.593101044
1.924248505,0.02664459229,-9.73740097
1.907782745,-0.04490661621,-9.599238281
2.014810181,0.09744735718,-9.694739685
1.964215393,0.04445755005,-9.599986725
2.054028625,-0.07035369873,-9.592951355
2.001936951,0.0303868103,-9.664502563
1.888023834,0.004790039063,-9.654473419
1.86048111,0.03023712158,-9.699529724
1.996248779,0.07484436035,-9.576485596
1.968406677,-0.03891906738,-9.6414505
1.920206909,-0.06256988525,-9.642348633
1.936672668,0.03367996216,-9.667795715
1.880240021,-0.01886077881,-9.686506805
1.945055237,0.02275268555,-9.645342407
1.925745392,-0.0007484436035,-9.658964081
2.076481934,0.02679428101,-9.633217621
2.010768585,0.04086502075,-9.632918243
2.066602478,0.07918533325,-9.648336182
1.959425354,0.01541793823,-9.610614624
2.009720764,-0.01945953369,-9.608668671
1.915716248,-0.01901046753,-9.708511047
1.917213135,-0.05343887329,-9.645941162
2.02888092,-0.008981323242,-9.625583496
2.019899597,0.01586700439,-9.587113495
2.030976563,0.1830693054,-9.651928711
1.98442337,0.05029541016,-9.659413147
2.046993256,-0.04969665527,-9.674831085
1.960922241,-0.01811233521,-9.603279877
1.979034576,-0.0288899231,-9.640402679
1.923200684,0.01601669312,-9.678124237
1.999392242,0.0001496887207,-9.630523224
2.066602478,0.008981323242,-9.60058548
2.105072479,0.0217048645,-9.624535675
2.022144928,0.05807922363,-9.698182526
2.139949951,0.05149291992,-9.559421082
2.085313568,0.05733078003,-9.581125946
2.034419403,0.01092727661,-9.597891083
1.99969162,-0.02215393066,-9.670190735
2.015408936,0.02814147949,-9.603130188
2.064207458,0.05373825073,-9.619446259
2.1260289,0.06855743408,-9.60058548
2.101030884,0.01826202393,-9.672436066
2.06166275,-0.01990859985,-9.59474762
2.008972321,0.03891906738,-9.642049255
2.049388275,0.04296066284,-9.622140656
2.035018158,0.01422042847,-9.607171783
2.051783295,0.04251159668,-9.658664703
2.141147461,0.04056564331,-9.598489838
2.15057785,-0.001047821045,-9.620793457
2.140698395,0.01691482544,-9.621841278
2.113005981,0.06990463257,-9.627080383
2.120340729,0.016615448,-9.598340149
2.115401001,-0.02395019531,-9.629625092
2.145488434,-0.02409988403,-9.60522583
2.168839874,0.05029541016,-9.608518982
2.118843842,0.02814147949,-9.568103027
2.161954193,0.02035766602,-9.620793457
2.195783844,0.1010398865,-9.535470886
2.305655365,0.0296383667,-9.591304779
2.40220459,-0.002993774414,-9.611213379
2.574645996,0.07694000244,-9.560169525
2.086361389,-0.08292755127,-9.633516998
1.873803406,-0.16615448,-9.708810425
2.3635849,-0.09220825195,-9.574240265
2.220632172,0.00628692627,-9.519903259
2.208657074,-0.03098556519,-9.578730927
2.404599609,-0.06316864014,-9.599837036
2.474504242,-0.09131011963,-9.520502014
2.494263153,-0.0477507019,-9.503736877
2.409838715,-0.06631210327,-9.584868164
2.500550079,-0.1541793823,-9.475595398
2.598895569,-0.05119354248,-9.52798645
2.57883728,-0.0722996521,-9.481882324
2.569257202,-0.02514770508,-9.512269135
2.595452728,-0.1290316772,-9.496252441
2.583777008,-0.07753875732,-9.509425049
2.612517242,-0.06526428223,-9.481283569
2.633623352,-0.09175918579,-9.511820068
2.610122223,-0.06750961304,-9.49176178
2.642754364,-0.07424560547,-9.50223999
2.611319733,-0.02724334717,-9.497749329
2.59290802,-0.1182540894,-9.505383453
2.554438019,-0.05882766724,-9.494755554
2.547552338,-0.1287322998,-9.559271393
2.558030548,-0.09415420532,-9.482630768
2.604733429,-0.01766326904,-9.472302246
2.709814911,-0.07409591675,-9.475745087
2.749033356,-0.1248403931,-9.499246216
2.6011409,-0.1050814819,-9.47888855
2.556533661,-0.02305206299,-9.493558044
2.527494049,-0.08158035278,-9.527836761
2.69349884,-0.1432521057,-9.445058899
2.644101563,-0.1384620667,-9.483079834
2.511177979,-0.01062789917,-9.470356293
2.604883118,-0.03068618774,-9.458381195
2.716251526,-0.1372645569,-9.474098511
2.657423859,-0.1050814819,-9.512718201
2.583926697,-0.08696914673,-9.461524658
2.384840698,-0.1160087585,-9.547296295
2.511776733,0.06197113037,-9.466763763
2.756966858,0.001347198486,-9.472901001
2.86908371,-0.05478607178,-9.460626526
2.689157867,-0.08921447754,-9.4835289
2.49815506,-0.155975647,-9.547745361
2.537223816,-0.08622070313,-9.568402405
2.362836456,-0.2525248718,-9.346264343
2.413730621,0.08382568359,-9.651779022
2.622845764,-0.1637594604,-9.34192337
2.645897827,-0.1951940918,-9.537716217
2.821333008,-0.167202301,-9.495503998
2.795586548,0.177381134,-9.42275528
2.773881683,0.02499801636,-9.507179718
2.744093628,-0.2653981018,-9.34776123
2.851121063,-0.0592767334,-9.439221039
2.592608643,0.08861572266,-9.486372986
2.588117981,0.1547781372,-9.402547302
3.072211304,-0.2267784119,-9.429042206
2.92641449,-0.04745132446,-9.370962982
2.950364685,0.2227368164,-9.525292053
3.013383636,0.04355941772,-9.224717102
2.966381378,-0.08053253174,-9.470955048
2.987637177,-0.1348695374,-9.431736603
3.068469086,0.08517288208,-9.340576172
2.862497406,-0.02395019531,-9.357490997
2.916535034,-0.03442840576,-9.452543335
2.972668304,0.02155517578,-9.368118896
3.119512939,-0.1029858398,-9.321565704
3.10304718,0.1191522217,-9.357940063
2.869832153,0.01691482544,-9.366622009
2.965632935,-0.0252973938,-9.414821777
2.952759705,-0.0339793396,-9.427245941
2.950065308,0.01916015625,-9.405241699
2.908152466,-0.003442840576,-9.380692749
3.007545776,0.01182540894,-9.405690765
3.067720642,-0.1224453735,-9.403295746
2.85037262,-0.01032852173,-9.415570221
2.818488922,-0.006735992432,-9.389075317
2.791395264,-0.06990463257,-9.445807343
2.868335266,-0.02380050659,-9.444310455
2.928659821,-0.1332229614,-9.352700958
2.846480713,0.02649490356,-9.427545319
2.807561646,-0.03697311401,-9.449549561
2.964734802,-0.0477507019,-9.391769714
2.802472229,0.01751358032,-9.379794617
2.808759155,-0.07170089722,-9.424850922
2.835852814,0.06017486572,-9.453291779
2.952460327,0.02754272461,-9.397607574
3.103346558,0.001197509766,-9.349108429
2.874023438,-0.03547622681,-9.501491547
2.722089386,0.0426612854,-9.475296021
2.808459778,-0.04984634399,-9.419611816
2.718347168,-0.09804611206,-9.41796524
2.727029114,-0.0556842041,-9.491013336
2.815046082,0.002395019531,-9.418563995
2.891387329,-0.01152603149,-9.394464111
3.017574921,-0.006137237549,-9.386530609
2.843037872,-0.05673202515,-9.411378937
2.754871216,0.03727249146,-9.455237732
2.716401215,-0.04355941772,-9.451645203
2.77193573,-0.02499801636,-9.401200104
2.761008453,-0.02365081787,-9.396559753
2.894381104,0.05044509888,-9.561367035
3.044219513,-0.03847000122,-9.254954224
3.133134613,0.0426612854,-9.404493256
2.846181335,-0.09460327148,-9.470356293
2.757415924,0.1884580994,-9.469607849
2.639461212,0.246537323,-9.44490921
2.909050598,0.1872605896,-9.329648895
3.156186676,-0.1529818726,-9.470505981
2.899171143,-0.08068222046,-9.345216522
2.846031647,-0.1941462708,-9.451495514
2.745141449,0.04251159668,-9.374854889
2.899769897,-0.3037184143,-9.423204346
2.696342926,0.008382568359,-9.539811859
2.852019196,-0.1932481384,-9.396410065
2.861898651,0.05942642212,-9.374256134
3.052452393,-0.2847079468,-9.436077576
2.941982117,-0.2365081787,-9.337133331
2.800077209,-0.07559280396,-9.411528625
2.704276428,-0.1185534668,-9.502090302
2.675835571,-0.1823208618,-9.479337616
2.782264252,-0.06062393188,-9.485325165
2.881208496,-0.1282832336,-9.414821777
2.795885925,-0.05403762817,-9.441316681
3.050207062,-0.06765930176,-9.372459869
2.873574371,-0.09490264893,-9.460925903
2.803220673,-0.04834945679,-9.439221039
2.829565887,-0.07409591675,-9.468859406
2.798280945,-0.1127156067,-9.383836212
2.75786499,-0.09954299927,-9.435179443
2.765798492,-0.0809815979,-9.479487305
2.872077484,-0.0520916748,-9.366622009
2.903212738,-0.04101470947,-9.538165283
2.950214996,-0.04475692749,-9.411229248
2.831062775,-0.2420466614,-9.393865356
2.676883392,-0.1848655701,-9.398056641
2.681523743,-0.08547225952,-9.471703491
2.836451569,-0.1730401611,-9.388027496
2.847528534,-0.1127156067,-9.350904694
2.832709351,-0.1088237,-9.469158783
2.704575806,-0.09879455566,-9.481882324
2.821931763,0.01601669312,-9.428293762
2.862497406,-0.1528321838,-9.418414307
2.813698883,-0.04146377563,-9.442364502
2.934497681,-0.0303868103,-9.321416016
2.934198303,-0.02185455322,-9.475146332
3.009641418,-0.2868035889,-9.246122589
2.925366669,0.1478924561,-9.542206879
2.90066803,-0.1384620667,-9.332492981
2.932402039,-0.04161346436,-9.398056641
2.841391296,0.01122665405,-9.39925415
2.797382813,-0.1471440125,-9.409283295
2.799927521,-0.00643661499,-9.379644928
2.951113129,0.05673202515,-9.407337341
3.123255157,0.06301895142,-9.388027496
3.051404572,-0.05882766724,-9.439969482
3.007845154,-0.1445993042,-9.428742828
2.659669189,0.08382568359,-9.41916275
2.553689575,0.1026864624,-9.43203598
2.62688736,0.05613327026,-9.485474854
2.932851105,-0.08442443848,-9.40628952
3.243305511,-0.03682342529,-9.413624268
3.116968231,-0.144150238,-9.29043045
2.857258301,0.0889151001,-9.465416565
2.715652771,0.1884580994,-9.465416565
2.870281219,-0.04475692749,-9.434281311
2.840642853,-0.0513432312,-9.428742828
2.810705109,0.01960922241,-9.440119171
2.777324524,0.08472381592,-9.458680573
2.90066803,-0.08861572266,-9.413175201
2.896177368,0.02649490356,-9.431437225
2.83630188,0.03996688843,-9.454638977
2.775677948,-0.05508544922,-9.412875824
2.781066742,0.0122744751,-9.429790649
2.846031647,-0.02769241333,-9.387877808
2.819087677,-0.01721420288,-9.4636203
2.821333008,0.02230361938,-9.427695007
2.857557678,-0.01242416382,-9.404343567
2.85037262,-0.02784210205,-9.431437225
2.775228882,-0.008981323242,-9.437724152
2.900967407,0.02649490356,-9.432485046
2.82462616,-0.0245489502,-9.432185669
2.847678223,-0.0209564209,-9.391320648
2.839445343,0.01257385254,-9.441915436
2.822530518,-0.01676513672,-9.374256134
2.878214722,-0.02215393066,-9.380093994
2.859803009,-0.008681945801,-9.417216797
2.845283203,-0.03682342529,-9.408235474
2.880160675,0.01197509766,-9.433383179
2.86549118,-0.03457809448,-9.378148041
2.89947052,-0.03817062378,-9.42859314
2.868484955,0.01916015625,-9.425449677
2.845881958,0.04131408691,-9.490264893
2.858006744,0.005388793945,-9.341174927
2.947520599,-0.01781295776,-9.456285553
2.922223206,-0.03562591553,-9.31273407
2.810854797,0.1255888367,-9.466913452
2.808310089,-0.0975970459,-9.426946564
2.960992584,-0.02380050659,-9.402098236
2.856360168,0.01766326904,-9.426946564
2.757116547,-0.03158432007,-9.446555786
2.933300171,-0.06526428223,-9.303902435
2.975362701,0.01257385254,-9.446855164
2.771037598,-0.1016386414,-9.457632751
2.842289429,0.003442840576,-9.432485046
2.897524567,-0.01212478638,-9.374405823
2.790497131,-0.05553451538,-9.428742828
2.876867523,0.03682342529,-9.399403839
2.875071259,-0.04251159668,-9.429042206
2.874173126,-0.04999603271,-9.408385162
2.836900635,-0.01871109009,-9.400601349
2.826422424,-0.01062789917,-9.435329132
2.904859314,-0.01347198486,-9.489067383
2.858455811,-0.01362167358,-9.396260376
2.884501648,-0.009280700684,-9.438322906
2.820734253,-0.0303868103,-9.432335358
2.925965424,-0.0549357605,-9.416618042
2.805615692,0.01556762695,-9.374405823
2.805016937,-0.004041595459,-9.482780457
2.858455811,-0.008382568359,-9.387728119
2.891986084,-0.03248245239,-9.436676331
2.947670288,-0.03158432007,-9.399852905
2.808459778,-0.03577560425,-9.436376953
2.81519577,0.01481918335,-9.408983917
2.861150208,-0.02859054565,-9.426497498
2.845133514,-0.02903961182,-9.405541077
2.897973633,-0.04251159668,-9.39925415
2.842888184,0.01407073975,-9.421108704
2.888543243,-0.03577560425,-9.420509949
2.899320831,0.004939727783,-9.419611816
2.875969391,-0.07140151978,-9.417815552
2.819985809,0.008232879639,-9.397308197
2.879861298,0.01676513672,-9.442214813
2.986589355,-0.004790039063,-9.392967224
2.921923828,0.005239105225,-9.397158508
2.87956192,-0.07694000244,-9.416618042
2.856360168,0.05957611084,-9.427844696
2.9077034,-0.04760101318,-9.40868454
2.925366669,-0.009729766846,-9.401798859
2.859803009,-0.02978805542,-9.404193878
2.859952698,-0.060025177,-9.396260376
2.923420715,0.005388793945,-9.39925415
2.903961182,-0.02005828857,-9.403295746
2.978506165,-0.05418731689,-9.431287537
2.950664063,-0.02245330811,-9.379644928
2.835852814,-0.04535568237,-9.43083847
2.831811218,-0.0260458374,-9.390871582
2.891387329,-0.05313949585,-9.380093994
2.897374878,-0.007334747314,-9.4636203
2.909649353,-0.04834945679,-9.397906952
2.926713867,-0.01616638184,-9.412576447
2.90066803,-0.04954696655,-9.414073334
2.945275269,-0.002844085693,-9.386680298
2.913990326,-0.07095245361,-9.406439209
2.872975616,-0.06571334839,-9.435927887
2.923720093,-0.01646575928,-9.380393372
2.931803284,-0.0043409729,-9.424401855
2.903512115,-0.06062393188,-9.388326874
2.954705658,-0.02619552612,-9.388177185
2.933749237,-0.01407073975,-9.431736603
2.92401947,-0.03697311401,-9.418264618
2.895877991,-0.04909790039,-9.377998352
2.900218964,0.007634124756,-9.396859131
2.985541534,-0.07679031372,-9.38638092
3.128943329,-0.01990859985,-9.367370453
3.022963715,-0.009580078125,-9.374854889
2.969524841,0.02544708252,-9.382489014
2.958148499,-0.0390687561,-9.372908936
3.004252625,-0.04056564331,-9.401050415
3.014431458,-0.04251159668,-9.352401581
2.956052856,-0.0505947876,-9.380842438
3.03284317,-0.04520599365,-9.393266602
2.943029938,-0.04206253052,-9.365723877
2.962788849,-0.02634521484,-9.386530609
2.950065308,-0.05239105225,-9.365873566
2.991828461,-0.008831634521,-9.337133331
3.055895233,-0.05328918457,-9.422605591
2.998265076,-0.0802331543,-9.395960999
2.981499939,-0.05957611084,-9.38757843
2.827470245,-0.06122268677,-9.416168976
2.787653046,-0.016615448,-9.471104736
2.893782349,0.0260458374,-9.389823761
2.935994568,-0.07768844604,-9.322463837
2.955903168,-0.07574249268,-9.406738586
2.887196045,-0.05643264771,-9.427994385
2.778072968,-0.08936416626,-9.453291779
2.849923553,-0.01287322998,-9.419462128
2.923570404,0.01212478638,-9.376501465
2.94392807,-0.06122268677,-9.480834503
2.954555969,-0.03652404785,-9.419013062
2.828218689,-0.02829116821,-9.416318665
2.725831604,-0.03577560425,-9.442813568
2.828368378,-0.0260458374,-9.428742828
2.984044647,0.01826202393,-9.328601074
3.061882782,-0.08981323242,-9.35255127
2.976111145,-0.05912704468,-9.411678314
2.940934296,-0.1980381775,-9.411229248
2.951562195,0.0130229187,-9.339228973
2.936593323,-0.04415817261,-9.449549561
2.900817719,-0.1552272034,-9.367969208
2.910697174,-0.002544708252,-9.43562851
2.89123764,0.01062789917,-9.414971466
2.900817719,-0.1097218323,-9.33144516
2.980003052,-0.07170089722,-9.426647186
2.937491455,-0.1049317932,-9.345366211
2.882555695,-0.005388793945,-9.484427032
2.859803009,-0.07140151978,-9.365873566
2.970273285,-0.06810836792,-9.398356018
2.920876007,-0.007634124756,-9.387877808
2.890938263,-0.07125183105,-9.402696991
2.949466553,-0.04071533203,-9.380243683
2.914439392,-0.06227050781,-9.392218781
2.987637177,-0.1107696533,-9.436227264
2.955903168,-0.02110610962,-9.378297729
2.915786591,-0.06915618896,-9.387129364
2.966231689,-0.126486969,-9.428742828
2.931952972,-0.05149291992,-9.341025238
2.935096436,-0.0896635437,-9.442214813
2.926564178,-0.0008981323242,-9.390272827
2.934347992,-0.08771759033,-9.3946138
3.038231964,-0.07364685059,-9.435329132
2.923420715,-0.1016386414,-9.373657379
2.913092194,-0.002694396973,-9.40509201
2.891087952,-0.07005432129,-9.436077576
2.976560211,-0.07888595581,-9.340276794
2.992876282,-0.05688171387,-9.432934113
2.896626434,-0.1312770081,-9.360484772
2.972817993,-0.1234931946,-9.389225006
2.953807526,-0.1354682922,-9.374555511
3.051853638,0.06421646118,-9.349407806
2.922223206,-0.1748364258,-9.37350769
2.934797058,-0.1531315613,-9.339827728
2.990331573,-0.08232879639,-9.40988205
2.979404297,-0.1243913269,-9.384434967
3.028502197,-0.1562750244,-9.361083527
2.998714142,-0.1212478638,-9.358538818
2.903063049,-0.1074765015,-9.41916275
3.003803558,-0.05358856201,-9.401948547
3.00006134,-0.1639091492,-9.360784149
3.008593597,-0.07274871826,-9.338779907
3.066972198,-0.1323248291,-9.428742828
3.09960434,-0.1324745178,-9.305249634
2.962788849,0.06077362061,-9.396859131
3.030448151,-0.1550775146,-9.415869598
3.117417297,-0.1207987976,-9.296268311
2.987637177,-0.1621128845,-9.418114929
2.982098694,-0.04954696655,-9.355095978
3.099304962,-0.1260379028,-9.30330368
3.153791656,-0.07095245361,-9.392817535
3.041674805,-0.09250762939,-9.365274811
3.010539551,-0.07903564453,-9.363328857
2.983894958,-0.1288819885,-9.365125122
2.994971924,-0.05957611084,-9.36886734
3.097957764,-0.1050814819,-9.391620026
3.100203094,-0.03996688843,-9.331295471
3.082539825,-0.1442999268,-9.391769714
3.027903442,-0.1106199646,-9.356592865
3.039429474,0.0002993774414,-9.383686523
3.078348541,-0.1049317932,-9.3256073
3.026705933,-0.1026864624,-9.372010803
3.047213287,-0.04655319214,-9.395212555
3.042423248,-0.02469863892,-9.354946289
3.016227722,-0.1579216003,-9.362580414
3.110830994,-0.05688171387,-9.372459869
2.999013519,-0.03847000122,-9.375154266
3.051105194,-0.1004411316,-9.353599091
3.084036713,-0.1115180969,-9.364376678
2.988984375,-0.09385482788,-9.35719162
3.093616791,-0.08202941895,-9.372310181
3.080444183,-0.1348695374,-9.352251892
3.057691498,-0.08517288208,-9.412875824
2.893782349,-0.1299298096,-9.320517883
3.059338074,-0.1130149841,-9.402696991
2.998564453,-0.02649490356,-9.466763763
3.05978714,-0.1350192261,-9.251062317
3.062780914,0.03787124634,-9.391769714
2.962788849,-0.1258882141,-9.390422516
2.987337799,-0.06631210327,-9.329798584
3.023113403,-0.001945953369,-9.461075592
3.002905426,-0.01945953369,-9.333391113
3.065175934,0.02918930054,-9.404193878
2.957549744,-0.0245489502,-9.404343567
2.996319122,0.01556762695,-9.395511932
2.990181885,0.01242416382,-9.386979675
2.921025696,-0.06182144165,-9.378148041
2.90186554,0.0643661499,-9.341025238
2.918630676,0.09475296021,-9.473499756
2.770289154,-0.04954696655,-9.384884033
3.144960022,0.03188369751,-9.361682281
3.082240448,-0.02514770508,-9.377998352
3.014880524,-0.02424957275,-9.489217072
2.81759079,0.01990859985,-9.373058624
2.966381378,0.1079255676,-9.418863373
2.972967682,-0.09460327148,-9.353299713
3.009192352,-0.05882766724,-9.377848663
2.958298187,0.01841171265,-9.399403839
2.91937912,-0.04071533203,-9.386680298
3.005749512,-0.07259902954,-9.348359985
2.941682739,-0.07274871826,-9.324709167
3.009042664,-0.04610412598,-9.456435242
2.977608032,-0.06047424316,-9.347910919
3.056194611,-0.04969665527,-9.403295746
3.036435699,-0.03367996216,-9.407786407
3.014431458,-0.1296304321,-9.251212006
2.979553986,-0.05358856201,-9.43787384
3.114872589,0.05328918457,-9.414372711
3.144361267,-0.2853067017,-9.358239441
2.851420441,-0.04505630493,-9.43323349
2.842439117,0.08726852417,-9.32905014
3.197949829,0.04879852295,-9.341474304
3.065625,-0.2499801636,-9.345815277
2.829715576,-0.05044509888,-9.405541077
2.915487213,0.005837860107,-9.287586365
3.156036987,-0.0173638916,-9.293573914
3.054697723,-0.1384620667,-9.436376953
3.068618774,0.1338217163,-9.405840454
2.812800751,-0.04909790039,-9.478140106
2.619103546,-0.08337661743,-9.416019287
2.655627594,0.0730480957,-9.588460693
2.556084595,-0.008681945801,-9.412576447
2.714754639,0.09056167603,-9.473948822
2.487078094,-0.04490661621,-9.503587189
2.574496307,-0.01871109009,-9.531129913
2.786904602,0.04670288086,-9.497449951
2.532583466,0.1029858398,-9.476942596
2.495460663,0.0383203125,-9.513616333
2.473306732,-0.04131408691,-9.475595398
2.536026306,0.002395019531,-9.496701508
2.500400391,0.06601272583,-9.572893066
2.466121674,0.1225950623,-9.483379211
2.467618561,0.05448669434,-9.504934387
2.491868134,-0.02395019531,-9.566007385
2.574047241,0.07978408813,-9.516610107
2.558329926,0.06885681152,-9.502988434
2.544857941,0.05284011841,-9.533973999
2.522853699,0.04400848389,-9.466464386
2.511327667,0.005388793945,-9.579778748
2.475252686,0.07903564453,-9.457632751
2.550546112,0.06107299805,-9.51511322
2.48992218,-0.02140548706,-9.525441742
2.609224091,0.0643661499,-9.479786682
2.590363312,-0.03981719971,-9.466614075
2.606829071,0.206869812,-9.543105011
2.443518677,0.04355941772,-9.566755829
2.441123657,0.01586700439,-9.534572754
2.583178253,0.08337661743,-9.505084076
2.549198914,0.04894821167,-9.514664154
2.530787201,0.02245330811,-9.542506256
2.596051483,0.04535568237,-9.499246216
2.536026306,0.07244934082,-9.513766022
2.523153076,0.07364685059,-9.555978241
2.491568756,-0.01601669312,-9.535919952
2.477647705,0,-9.53966217
2.502196655,0.06212081909,-9.522897034
2.535128174,0.03712280273,-9.521549835
2.536325684,0.04086502075,-9.510622559
2.527044983,0.001945953369,-9.492659912
2.541564789,0.07125183105,-9.537267151
2.544408875,-0.005239105225,-9.495803375
2.509681091,0.05807922363,-9.470206604
2.48872467,0.02409988403,-9.580227814
2.519560547,0.02065704346,-9.471254425
2.673141174,0.05463638306,-9.459429016
2.493065643,0.1182540894,-9.541458435
2.17752182,0.01631607056,-9.535171509
2.562820587,-0.00628692627,-9.540560303
2.511177979,-0.09894424438,-9.467661896
2.573747864,-0.01047821045,-9.50927536
2.672392731,0.1212478638,-9.50583252
2.5414151,-0.04790039063,-9.500294037
2.52734436,0.06900650024,-9.492809601
2.549498291,-0.02230361938,-9.52918396
2.649939423,0.03143463135,-9.470356293
2.673141174,0.03128494263,-9.463171234
2.622546387,-0.01601669312,-9.499246216
2.634671173,0.01781295776,-9.502389679
2.689008179,0.05194198608,-9.528285828
2.581980743,-0.004790039063,-9.389823761
2.661166077,0.04221221924,-9.548942871
2.630629578,0.01212478638,-9.47649353
2.516417084,0.02514770508,-9.514963531
2.528990936,0.01197509766,-9.479487305
2.590962067,0.02589614868,-9.52798645
2.613714752,0.01182540894,-9.477241974
2.769989777,0.04505630493,-9.479187927
2.665207672,0.0173638916,-9.45194458
2.627037048,0.01422042847,-9.506730652
2.478994904,0.04715194702,-9.505233765
2.591560822,0.0426612854,-9.461075592
2.653981018,0.04221221924,-9.552984467
2.605481873,-0.1097218323,-9.335486755
2.538121948,0.06706054688,-9.58187439
2.412533112,0.1395098877,-9.521549835
2.741399231,-0.01317260742,-9.519903259
2.733166351,0.2155517578,-9.369316406
2.745141449,0.0001496887207,-9.468709717
2.609523468,0.002694396973,-9.519304504
2.564766541,-0.03293151855,-9.560917969
2.560575256,0.0809815979,-9.42275528
2.627935181,0.05388793945,-9.503287811
2.656226349,-0.001496887207,-9.497449951
2.665806427,0.04251159668,-9.466763763
2.679128723,0.02799179077,-9.448801117
2.633024597,0.03652404785,-9.532926178
2.623594208,-0.01257385254,-9.439221039
2.614313507,0.06167175293,-9.487420807
2.604134674,0.03817062378,-9.510622559
2.59754837,0.04161346436,-9.467961273
2.732417908,-0.02230361938,-9.437125397
2.686313782,0.1673519897,-9.475146332
2.654430084,-0.02679428101,-9.498048706
2.595752106,-0.004939727783,-9.51167038
2.692151642,0.06556365967,-9.438173218
2.607278137,0.04116439819,-9.505682831
2.57883728,0.02065704346,-9.474248199
2.681224365,0.08816665649,-9.487720184
2.628084869,0.05284011841,-9.438322906
2.635419617,-0.01691482544,-9.515562286
2.657872925,0.04610412598,-9.474098511
2.651136932,0.09460327148,-9.454638977
2.666854248,0.01137634277,-9.520202637
2.631827087,0.1016386414,-9.449549561
2.681673431,0.003442840576,-9.49176178
2.687960358,0.03936813354,-9.468260651
2.650837555,0.05239105225,-9.487271118
2.679577789,0.02574645996,-9.440568237
2.636617126,0.05792953491,-9.491312714
2.634072418,0.06646179199,-9.468110962
2.681224365,0.03487747192,-9.493857422
2.638413391,-0.01032852173,-9.449399872
2.676733704,0.0628692627,-9.492360535
2.604284363,0.01886077881,-9.477092285
2.652933197,0.009131011963,-9.486822052
2.654130707,0.02799179077,-9.474248199
2.662962341,0.04730163574,-9.473649445
2.596650238,0.04400848389,-9.491911469
2.60697876,0.07274871826,-9.46601532
2.648442535,0.07394622803,-9.507179718
2.685415649,0.06212081909,-9.469158783
2.68302063,0.04475692749,-9.466763763
2.6701474,0.07125183105,-9.500443726
2.625989227,0.0592767334,-9.479936371
2.652184753,0.06451583862,-9.495354309
2.64559845,0.04954696655,-9.483977966
2.652035065,0.09714797974,-9.487869873
2.646047516,0.04251159668,-9.451046448
2.708018646,0.01571731567,-9.493857422
2.6210495,0.05403762817,-9.443562012
2.654430084,0.1017883301,-9.492659912
2.710114288,0.0296383667,-9.498946838
2.68885849,0.02275268555,-9.419013062
2.674638062,0.06167175293,-9.464967499
2.688110046,0.03637435913,-9.484427032
2.649340668,-0.01047821045,-9.451345825
2.692451019,0.09595046997,-9.495653687
2.672392731,0.04685256958,-9.49640213
2.771037598,0.06167175293,-9.394464111
2.72283783,-0.01257385254,-9.520202637
2.716700592,0.03173400879,-9.511969757
2.606380005,0.00628692627,-9.405541077
2.599644012,0.09490264893,-9.483828278
2.608924713,-0.01766326904,-9.479187927
2.631378021,-0.001945953369,-9.476792908
2.704426117,-0.02694396973,-9.511221313
2.635718994,0.01526824951,-9.467661896
2.646346893,-0.03338058472,-9.497899017
2.611469421,0.0426612854,-9.485325165
2.655328217,0.03487747192,-9.505682831
2.647843781,-0.01766326904,-9.492360535
2.714155884,0.03053649902,-9.442065125
2.604134674,0.04610412598,-9.525591431
2.650987244,0.08666976929,-9.477541351
2.710713043,0.04041595459,-9.461824036
2.653531952,-0.0043409729,-9.462722168
2.569706268,0.05089416504,-9.512269135
2.640209656,0.03847000122,-9.476643219
2.686613159,-0.008232879639,-9.443861389
2.631827087,0.02140548706,-9.47888855
2.65607666,0.006137237549,-9.501641235
2.586321716,-0.0002993774414,-9.443861389
2.656825104,0.01451980591,-9.503138123
2.641556854,-0.003143463135,-9.470805359
2.615511017,-0.007783813477,-9.486522675
2.611319733,0.008382568359,-9.511969757
2.65263382,-0.001945953369,-9.506431274
2.626288605,0.01392105103,-9.487420807
2.614463196,-0.003742218018,-9.498198395
2.604434052,0.01796264648,-9.484277344
2.58587265,0.04565505981,-9.52678894
2.641107788,0.01481918335,-9.465865631
2.621348877,0.01392105103,-9.487420807
2.6701474,0.01676513672,-9.482181702
2.717449036,0.03517684937,-9.50104248
2.558329926,-0.02200424194,-9.486073608
2.518961792,0.00419128418,-9.48592392
2.669099579,0.09415420532,-9.504934387
2.637515259,-0.04236190796,-9.538314972
2.54021759,0.01122665405,-9.454638977
2.67718277,0.1142124939,-9.502689056
2.646795959,-0.0339793396,-9.49759964
2.642754364,0.0245489502,-9.517957306
2.586471405,0.06152206421,-9.474248199
2.60458374,0.07978408813,-9.514514465
2.5613237,0.01122665405,-9.514813843
2.633623352,0.05224136353,-9.468110962
2.705923004,0.02365081787,-9.50463501
2.634970551,0.01437011719,-9.455537109
2.589614868,0.04924758911,-9.484427032
2.655926971,0.04071533203,-9.479487305
2.672542419,0.00853225708,-9.47649353
2.652783508,0.06197113037,-9.521100769
2.608026581,0.03457809448,-9.51511322
2.640509033,0.007185058594,-9.457333374
2.612666931,0.1113684082,-9.505533142
2.611319733,-0.007334747314,-9.473200378
2.68421814,0.02065704346,-9.476343842
2.627785492,0.01407073975,-9.521100769
2.634371796,0.0477507019,-9.493108978
2.626138916,0.01826202393,-9.498198395
2.609074402,0.06631210327,-9.47185318
2.597398682,0.0007484436035,-9.501491547
2.617007904,-0.0122744751,-9.487420807
2.647993469,0.05478607178,-9.50223999
2.623444519,0.033230896,-9.475745087
2.655328217,0.04460723877,-9.473350067
2.601739655,0.01422042847,-9.48592392
2.650388489,0.03382965088,-9.478140106
2.643353119,0.05269042969,-9.492510223
2.605631561,0.03787124634,-9.466913452
2.607427826,0.02739303589,-9.476044464
2.658771057,0.06706054688,-9.469607849
2.650687866,-0.01796264648,-9.50583252
2.661315765,0.04745132446,-9.45897995
2.602637787,0.01392105103,-9.519154816
2.640359344,0.01167572021,-9.485025787
2.638413391,0.06227050781,-9.499994659
2.63616806,-0.001796264648,-9.448950806
2.629731445,0.03996688843,-9.523196411
2.644550629,-0.00419128418,-9.466464386
2.613115997,0.03697311401,-9.50104248
2.634671173,-0.02499801636,-9.4835289
2.609373779,0.005837860107,-9.494306488
2.601739655,0.05014572144,-9.486223297
2.660567322,0.03981719971,-9.480834503
2.596650238,0.0043409729,-9.49520462
2.671195221,0.02185455322,-9.47888855
2.620600433,0.01901046753,-9.475745087
2.624342651,0.02679428101,-9.388177185
2.623444519,0.03098556519,-9.40628952
2.643353119,0.04490661621,-9.374854889
2.66311203,0.03293151855,-9.353449402
2.617307281,0.03008743286,-9.385782166
2.635569305,0.0173638916,-9.411229248
2.619702301,0.0390687561,-9.353150024
2.646346893,0.05628295898,-9.407337341
2.612966309,0.02829116821,-9.420659637
2.636317749,0.04011657715,-9.397158508
2.676134949,-0.002395019531,-9.404942322
2.646047516,0.04251159668,-9.375453644
2.629881134,0.03802093506,-9.42036026
2.637664948,0.02125579834,-9.333391113
2.675386505,0.03098556519,-9.435179443
2.637664948,0.008382568359,-9.392817535
2.631078644,0.008083190918,-9.369017029
2.634521484,0.02035766602,-9.438173218
2.673290863,0.02724334717,-9.382189636
2.63152771,0.02993774414,-9.378297729
2.633623352,0.0809815979,-9.441616058
2.656675415,-0.03607498169,-9.378896484
2.647245026,0.04894821167,-9.401499481
2.695295105,-0.02574645996,-9.39581131
2.661615143,0.02395019531,-9.348809052
2.613265686,0.0375718689,-9.461075592
2.611319733,-0.01646575928,-9.362879791
2.713257751,0.09415420532,-9.450447693
2.705623627,0.02424957275,-9.349108429
2.640059967,0,-9.390871582
2.504891052,0.01916015625,-9.442364502
2.678230591,0.01676513672,-9.41332489
2.7192453,0.01916015625,-9.408834229
2.723286896,0.01721420288,-9.376800842
2.645299072,0.05643264771,-9.414372711
2.677482147,-0.0303868103,-9.369615784
2.614612885,0.001197509766,-9.447004852
2.484832764,0.0520916748,-9.454040222
2.635269928,0.06930587769,-9.445058899
2.780318298,0.03173400879,-9.290729828
2.745440826,0.05149291992,-9.59115509
2.649789734,0.004790039063,-9.536967773
2.626438293,-0.004041595459,-9.516011353
2.607128448,0.0549357605,-9.465715942
2.587219849,-0.0173638916,-9.530531158
2.667602692,-0.05703140259,-9.514514465
2.608026581,-0.009280700684,-9.487869873
2.60697876,-0.02140548706,-9.523495789
2.616109772,-0.0252973938,-9.492809601
2.605481873,0.01017883301,-9.491312714
2.611768799,0.03233276367,-9.508826294
2.667602692,-0.002993774414,-9.517059174
2.604134674,0.04281097412,-9.494306488
2.613864441,-0.02215393066,-9.511071625
2.617906036,0.03532653809,-9.519304504
2.609224091,0.04161346436,-9.49295929
2.637814636,-0.04071533203,-9.524094543
2.630928955,0.05882766724,-9.491911469
2.637814636,0.03203338623,-9.469757538
2.618055725,-0.04655319214,-9.486672363
2.609224091,0.02245330811,-9.509125671
2.600392456,0.04430786133,-9.50807785
2.635269928,-0.02499801636,-9.478738861
2.664159851,0.0173638916,-9.486522675
2.607278137,0.0419128418,-9.516161041
2.658920746,0.006885681152,-9.49176178
2.636467438,0.01317260742,-9.491612091
2.599494324,0.01826202393,-9.44490921
2.636018372,0.03427871704,-9.501940613
2.614313507,0.01167572021,-9.473200378
2.662513275,-0.0303868103,-9.525292053
2.62568985,0.02829116821,-9.501192169
2.616858215,0.0296383667,-9.504485321
2.649789734,0.007334747314,-9.49056427
2.635868683,0.0209564209,-9.498497772
2.656525726,0.02709365845,-9.465865631
2.640808411,0.02230361938,-9.473350067
2.609822845,-0.01451980591,-9.525441742
2.664758606,0.03442840576,-9.481133881
2.637515259,0.0288899231,-9.441017303
2.646646271,0.03293151855,-9.514215088
2.636317749,-0.0296383667,-9.502090302
2.665057983,0.03113525391,-9.472451935
2.647245026,0.04715194702,-9.479038239
2.63856308,0.001496887207,-9.501641235
2.641856232,0.0209564209,-9.492360535
2.597997437,0.03188369751,-9.468560028
2.665357361,-0.06571334839,-9.493408356
2.646197205,0.08921447754,-9.47065567
2.629731445,-0.03517684937,-9.503587189
2.653082886,0.02859054565,-9.506431274
2.652334442,0.01212478638,-9.494456177
2.618055725,0.03502716064,-9.493108978
2.650987244,-0.0001496887207,-9.505084076
2.601290588,0.0130229187,-9.477092285
2.724933472,0.05313949585,-9.493408356
2.629581757,-0.005239105225,-9.479337616
2.64200592,0.04176315308,-9.472302246
2.607427826,0.06661148071,-9.499096527
2.720293121,0.006885681152,-9.490414581
2.641856232,0.02709365845,-9.46945816
2.656825104,0.02110610962,-9.482780457
2.564616852,0.07948471069,-9.499246216
2.634072418,-0.01646575928,-9.502090302
2.743345184,-0.01182540894,-9.460626526
2.624642029,0.01167572021,-9.461075592
2.581082611,0.03158432007,-9.531878357
2.61401413,0.0303868103,-9.442663879
2.64320343,0.02679428101,-9.498647461
2.649789734,0.03981719971,-9.476643219
2.664908295,0.01167572021,-9.477541351
2.668650513,0.02634521484,-9.498946838
2.618205414,0.02649490356,-9.494905243
2.643502808,0.02993774414,-9.486672363
2.670746155,-0.001496887207,-9.474397888
2.648143158,0.02814147949,-9.520651703
2.638413391,0.00419128418,-9.469308472
2.657573547,0.04071533203,-9.507329407
2.655328217,0.05987548828,-9.487121429
2.669548645,-0.05373825073,-9.489666138
2.630928955,0.01826202393,-9.474996643
2.618953857,0.05613327026,-9.4835289
2.659669189,0.009280700684,-9.490264893
2.682721252,-0.01631607056,-9.478738861
2.64440094,0.04864883423,-9.455088043
2.662064209,0.04296066284,-9.538614349
2.61161911,-0.02020797729,-9.497449951
2.637066193,0.01481918335,-9.448352051
2.660417633,0.03891906738,-9.529333649
2.623444519,0.01197509766,-9.464518433
2.686613159,0.0217048645,-9.495054932
2.58587265,0.03338058472,-9.498048706
2.675536194,0.02874023438,-9.466614075
2.638862457,0.006137237549,-9.492510223
2.676134949,0.01601669312,-9.492061157
2.659369812,0.06646179199,-9.478589172
2.672692108,-0.05014572144,-9.476044464
2.671045532,0.06601272583,-9.483828278
2.602039032,0.04550537109,-9.484277344
2.631228333,-0.03427871704,-9.510023804
2.642454987,-0.003442840576,-9.470505981
2.693199463,0.01017883301,-9.512119446
2.637814636,-0.01182540894,-9.466464386
2.657872925,0.0889151001,-9.467063141
2.660417633,0.01422042847,-9.473799133
2.690954132,0.007035369873,-9.469757538
2.635569305,0.07244934082,-9.501192169
2.624043274,0.02395019531,-9.483977966
2.647394714,-0.007484436035,-9.479337616
2.694846039,0.00853225708,-9.468709717
2.633773041,0.04251159668,-9.51047287
2.638413391,0.0556842041,-9.48008606
2.637814636,0.01721420288,-9.462273102
2.634072418,0.01556762695,-9.50927536
2.607577515,0.02799179077,-9.511371002
2.63856308,0.05119354248,-9.504485321
2.614912262,0.01077758789,-9.488019562
2.66191452,0.043409729,-9.475595398
2.663860474,0.05119354248,-9.49879715
2.662962341,-0.01466949463,-9.48233139
2.70053421,0.05328918457,-9.497150574
2.615960083,0.008981323242,-9.467811584
2.602488098,-0.01631607056,-9.485175476
2.601290588,0.07858657837,-9.53741684
2.658172302,0.02544708252,-9.478140106
2.640658722,0.03173400879,-9.474846954
2.680475922,0.03772155762,-9.454938354
2.628533936,0.02080673218,-9.491163025
2.618804169,0.03113525391,-9.479636993
2.634970551,0.08038284302,-9.479337616
2.643053741,0.02829116821,-9.477241974
2.633024597,0.04281097412,-9.508676605
2.578687592,0.04894821167,-9.500892792
2.663860474,0.0643661499,-9.487570496
2.678080902,0.043409729,-9.486223297
2.58826767,0.03278182983,-9.51631073
2.601889343,0.04730163574,-9.484127655
2.580633545,0.01901046753,-9.471404114
2.57419693,0.0260458374,-9.507179718
2.60338623,0.009430389404,-9.481732635
2.566413116,-0.003442840576,-9.511071625
2.616858215,-0.00643661499,-9.499246216
2.561922455,-0.007634124756,-9.479636993
2.556533661,-0.03682342529,-9.495354309
2.574645996,0.03787124634,-9.53502182
2.608924713,-0.002844085693,-9.476044464
2.616409149,0.05224136353,-9.505084076
2.631078644,-0.007185058594,-9.525292053
2.589914246,0.04505630493,-9.488019562
2.601889343,-0.0007484436035,-9.5432547
2.610271912,0.03353027344,-9.465416565
2.598296814,0.03517684937,-9.535171509
2.641407166,0.04610412598,-9.381291504
2.599494324,0.02424957275,-9.382788391
2.630779266,0.04490661621,-9.396559753
2.616109772,0.03876937866,-9.416318665
2.600691833,0.05194198608,-9.391021271
2.607577515,0.06406677246,-9.400301971
2.616409149,0.03487747192,-9.372759247
2.605631561,0.02933898926,-9.406588898
2.618055725,0.07035369873,-9.415270844
2.625839539,0.03951782227,-9.402547302
2.62568985,0.04954696655,-9.387428741
2.637664948,0.04101470947,-9.397757263
2.622845764,0.09026229858,-9.41212738
2.630629578,0.08786727905,-9.374555511
2.621498566,0.02679428101,-9.396709442
2.625839539,0.01901046753,-9.385632477
2.653531952,0.03996688843,-9.415869598
2.598895569,0.04355941772,-9.379195862
2.629581757,0.05508544922,-9.415270844
2.596500549,0.03637435913,-9.364975433
2.544259186,0.03188369751,-9.499395905
2.591560822,-0.1059796143,-9.404193878
2.628533936,0.05358856201,-9.419911194
2.531535645,0.04790039063,-9.406738586
2.586770782,0.01781295776,-9.39700882
2.597997437,-0.004939727783,-9.426497498
2.580783234,-0.04490661621,-9.423204346
2.602488098,0.02739303589,-9.420509949
2.567910004,0.05343887329,-9.411977692
2.597698059,0.03607498169,-9.438921661
2.544708252,0.007933502197,-9.432784424
2.572250977,0.004640350342,-9.408534851
2.580932922,0.02230361938,-9.415570221
2.606380005,0.129181366,-9.425449677
2.566862183,-0.02739303589,-9.422006836
2.617906036,-0.009729766846,-9.48008606
2.600392456,0.06227050781,-9.366771698
2.594554596,0.154329071,-9.368567963
2.56596405,-0.01796264648,-9.460476837
2.517464905,0.03083587646,-9.434131622
2.47585144,0.007185058594,-9.432485046
2.511177979,0.1478924561,-9.45658493
2.601440277,0.05044509888,-9.426048431
2.496358795,0.09520202637,-9.449699249
2.428699493,0.0983454895,-9.463470612
2.421514435,0.1037342834,-9.436676331
2.35894455,0.1703457642,-9.359287262
2.372266846,0.1648072815,-9.57124649
2.430046692,0.06975494385,-9.448651428
2.452949066,0.1731898499,-9.454638977
2.288890228,0.1202000427,-9.540560303
2.341580658,0.2618055725,-9.473948822
2.230960693,0.1534309387,-9.491013336
2.341430969,-0.01826202393,-9.459429016
2.272873535,-0.033230896,-9.605824585
2.251917114,0.05358856201,-9.552984467
2.209854584,0.03921844482,-9.599238281
2.154619446,0.09984237671,-9.658664703
2.161654816,-0.04011657715,-9.573042755
2.178270264,0.1046324158,-9.728419647
2.257455597,0.009729766846,-9.510622559
2.343975677,0.08232879639,-9.583820343
2.301164703,0.1239422607,-9.599238281
2.307900696,0.1407073975,-9.552086334
2.423610077,0.1230441284,-9.567504272
2.408641205,0.1219963074,-9.547445984
2.411485291,0.07679031372,-9.544452209
2.415377197,0.1387614441,-9.56196579
2.382745056,0.02784210205,-9.549242249
2.431244202,0.1562750244,-9.541308746
2.379751282,0.01871109009,-9.534123688
2.4126828,0.0383203125,-9.573940887
2.443069611,0.04086502075,-9.562414856
2.454146576,0.08292755127,-9.497749329
2.385589142,0.03682342529,-9.572593689
2.376757507,0.05972579956,-9.59474762
2.459984436,-0.02559677124,-9.507179718
2.323468323,-0.01571731567,-9.585017853
2.398761749,0.144150238,-9.501491547
2.435585175,0.03802093506,-9.553134155
2.474953308,-0.06915618896,-9.542805634
2.432292023,0.02050735474,-9.502090302
2.394271088,0.1273851013,-9.557325439
2.393372955,0.01496887207,-9.556427307
2.476300507,-0.03023712158,-9.531429291
2.476899261,0.07933502197,-9.492510223
2.540666656,0.08202941895,-9.583221588
2.514620819,0.0347277832,-9.493258667
2.45010498,0.04670288086,-9.524842987
2.473007355,0.060025177,-9.555529175
2.46297821,-0.03487747192,-9.493558044
2.471959534,0.0549357605,-9.534123688
2.482138367,0.0643661499,-9.529932404
2.495909729,-0.003293151855,-9.558972015
2.454146576,0.08577163696,-9.520502014
2.43723175,0.03891906738,-9.546248474
2.475552063,-0.0008981323242,-9.532477112
2.494263153,-0.007933502197,-9.486223297
2.493065643,0.06406677246,-9.51047287
2.467319183,0.02649490356,-9.52214859
2.449955292,0.05613327026,-9.50583252
2.450404358,0.01451980591,-9.543105011
2.458786926,-0.01032852173,-9.527238007
2.52270401,-0.003143463135,-9.569899292
2.465822296,0.06301895142,-9.479636993
2.440225525,0.0853225708,-9.547296295
2.43139389,-0.03532653809,-9.529633026
2.478396149,-0.02365081787,-9.516909485
2.489473114,0.09250762939,-9.542805634
2.452350311,0.03847000122,-9.496102753
2.497406616,0.001197509766,-9.514065399
2.463726654,0.07274871826,-9.499844971
2.454296265,-0.008232879639,-9.543105011
2.455044708,0.03772155762,-9.529782715
2.473007355,0.008382568359,-9.522747345
2.452350311,0.03727249146,-9.518556061
2.494113464,0.04370910645,-9.511071625
2.476150818,0.05478607178,-9.551487579
2.426005096,-0.004041595459,-9.536518707
2.461331635,0.03772155762,-9.534722443
2.439477081,0.02903961182,-9.541308746
2.454146576,0.005987548828,-9.498348083
2.537672882,0.03203338623,-9.552834778
2.394271088,0.04655319214,-9.523046722
2.46776825,0.03098556519,-9.532926178
2.454146576,0.03951782227,-9.494007111
2.470312958,-0.002844085693,-9.524244232
2.429447937,0.03562591553,-9.536668396
2.435884552,0.03143463135,-9.525292053
2.504591675,0.007185058594,-9.524393921
2.489473114,0.04296066284,-9.552385712
2.437830505,0.03098556519,-9.504185944
2.465223541,-0.02020797729,-9.541308746
2.477947083,0.05508544922,-9.537716217
2.43723175,0.03173400879,-9.523046722
2.496807861,0.03682342529,-9.486672363
2.469115448,0.02903961182,-9.568851471
2.440674591,-0.01032852173,-9.531429291
2.447560272,0.008681945801,-9.517059174
2.505040741,0.04415817261,-9.48008606
2.483485565,0.03203338623,-9.547445984
2.461780701,-0.01317260742,-9.533524933
2.470762024,0.06406677246,-9.477391663
2.435884552,0.02739303589,-9.566755829
2.440674591,0.00419128418,-9.520502014
2.448757782,0.03996688843,-9.519903259
2.481539612,0.002844085693,-9.529932404
2.506387939,0.04819976807,-9.546098785
2.443967743,0.002694396973,-9.527088318
2.471660156,0.02978805542,-9.522447968
2.472857666,0.04550537109,-9.527687073
2.474204865,0.007334747314,-9.523944855
2.457589417,0.03487747192,-9.548194427
2.477498016,0.06616241455,-9.50927536
2.470462646,-0.0008981323242,-9.558822327
2.621797943,0.02784210205,-9.49295929
2.610122223,-0.09684860229,-9.464518433
2.188898163,0.1148112488,-9.615704041
2.232906647,0.0462538147,-9.543105011
2.628384247,0.04236190796,-9.48472641
2.66191452,-0.02125579834,-9.49520462
2.599644012,-0.03353027344,-9.492510223
2.517315216,0.02724334717,-9.544152832
2.39397171,0.03382965088,-9.484576721
2.37526062,0.04610412598,-9.549541626
2.420316925,-0.009430389404,-9.561816101
2.514620819,-0.001347198486,-9.527387695
2.555186462,0.008232879639,-9.498198395
2.520009613,0.02035766602,-9.565558319
2.461780701,-0.02275268555,-9.527238007
2.508483582,0.01721420288,-9.523944855
2.492616577,0.1287322998,-9.48936676
2.481988678,-0.001646575928,-9.555379486
2.475102997,-0.02754272461,-9.50463501
2.456391907,0.01990859985,-9.538165283
2.434687042,0.07828720093,-9.527387695
2.498903503,-0.05343887329,-9.542506256
2.451601868,-0.03218307495,-9.563013611
2.453847198,0.05867797852,-9.530830536
2.459685059,0.02035766602,-9.506880341
2.439327393,-0.04236190796,-9.497449951
2.449356537,0.002544708252,-9.550589447
2.506837006,0.001796264648,-9.527088318
2.43139389,-0.002245330811,-9.522597656
2.454745331,-0.01032852173,-9.537267151
2.418820038,0.00853225708,-9.586664429
2.440075836,0.01347198486,-9.55612793
2.44546463,-0.005388793945,-9.51750824
2.46417572,-0.005239105225,-9.517807617
2.434387665,0.05643264771,-9.537865906
2.502645721,0.001496887207,-9.524094543
2.436932373,-0.03008743286,-9.559720459
2.438728638,0.0209564209,-9.530231781
2.466271362,0.06092330933,-9.542206879
2.473755798,0.01856140137,-9.544751587
2.426304474,-0.01077758789,-9.55612793
2.469564514,0.05119354248,-9.525741119
2.414628754,0.01871109009,-9.572743378
2.463427277,-0.02634521484,-9.544751587
2.502945099,0.0462538147,-9.525890808
2.456242218,0.0130229187,-9.524393921
2.426603851,-0.007185058594,-9.552834778
2.444566498,0.01886077881,-9.540709991
2.474653931,0.02784210205,-9.502389679
2.462529144,0.005837860107,-9.541308746
2.507735138,-0.01347198486,-9.576784973
2.441572723,0.02215393066,-9.512867889
2.461032257,0.01691482544,-9.546996918
2.445165253,0.03577560425,-9.55029007
2.466421051,0.03113525391,-9.497000885
2.484533386,0.07364685059,-9.544302521
2.427651672,-0.03532653809,-9.535919952
2.455044708,0.02230361938,-9.515262909
2.4525,0.03098556519,-9.562564545
2.453847198,0.009131011963,-9.568552094
2.49111969,0.03158432007,-9.541907501
2.454146576,0.01571731567,-9.514364777
2.470911713,-0.006137237549,-9.543554077
2.448608093,0.02514770508,-9.524393921
2.459385681,0.03218307495,-9.575138397
2.491718445,0.007035369873,-9.4543396
2.400408325,0.01197509766,-9.572593689
2.400258636,-0.02260299683,-9.544751587
2.542163544,-0.0043409729,-9.535770264
2.496508484,0.08502319336,-9.519454193
2.464774475,-0.03278182983,-9.545799408
2.469714203,0.02918930054,-9.483229523
2.413281555,0.03532653809,-9.559271393
2.442620544,-0.04715194702,-9.563013611
2.516417084,0.02260299683,-9.517807617
2.493514709,0.03248245239,-9.537865906
2.426154785,0.04400848389,-9.534273376
2.473905487,0.002245330811,-9.539362793
2.464475098,0.01242416382,-9.527537384
2.478845215,0.03772155762,-9.556726685
2.47704895,-0.01437011719,-9.523795166
2.493814087,0.04251159668,-9.505084076
2.444566498,-0.0217048645,-9.556277618
2.444566498,0.02365081787,-9.538314972
2.461032257,0.01272354126,-9.517059174
2.462379456,-0.007035369873,-9.493707733
2.468516693,0.01481918335,-9.531429291
2.463726654,0.02230361938,-9.532626801
2.448159027,-0.01407073975,-9.545500031
2.474953308,0.04655319214,-9.543404388
2.474354553,0.008083190918,-9.540709991
2.50743576,0.03637435913,-9.526489563
2.439177704,0.0252973938,-9.49295929
2.467468872,-0.03966751099,-9.517208862
2.442620544,0.02260299683,-9.502988434
2.42211319,-0.0419128418,-9.555978241
2.426304474,-0.04116439819,-9.518106995
2.459086304,-0.05089416504,-9.542805634
2.447410583,-0.03068618774,-9.513766022
2.442620544,0.01526824951,-9.527836761
2.480192413,0.05613327026,-9.566905518
2.430196381,-0.004041595459,-9.529782715
2.470462646,-0.01990859985,-9.533075867
2.414479065,0.02469863892,-9.530231781
2.449955292,0.008382568359,-9.544751587
2.476150818,-0.02439926147,-9.565109253
2.472707977,0.05104385376,-9.525741119
2.474803619,-0.04355941772,-9.540709991
2.343526611,0.009280700684,-9.592502289
2.407294006,0.01437011719,-9.52095108
2.555186462,0.01721420288,-9.492360535
2.437830505,0.003592529297,-9.591604156
2.448757782,-0.002245330811,-9.503886566
2.507735138,0.01706451416,-9.523645477
2.425256653,-0.009430389404,-9.554631042
2.452949066,-0.01586700439,-9.539961548
2.448308716,-0.002395019531,-9.544751587
2.445015564,-0.008232879639,-9.57124649
2.465822296,0.01437011719,-9.524244232
2.489024048,-0.00643661499,-9.49295929
2.464475098,0.0477507019,-9.524244232
2.467468872,0.005538482666,-9.573791199
2.468217316,-0.01437011719,-9.498946838
2.444416809,0.01272354126,-9.560319214
2.46537323,0.01182540894,-9.525292053
2.473755798,0.03622467041,-9.544601898
2.491419067,-0.01916015625,-9.564211121
2.430795135,-0.01541793823,-9.517807617
2.514171753,0.05014572144,-9.540111237
2.449356537,-0.02215393066,-9.519454193
2.383643188,0.004640350342,-9.544302521
2.473755798,0.1076261902,-9.507628784
2.55084549,-0.03023712158,-9.543853455
2.447111206,-0.0002993774414,-9.556277618
2.486629028,0.02634521484,-9.554780731
2.478695526,0.02859054565,-9.514664154
2.476450195,0.004640350342,-9.467961273
2.408641205,0.06167175293,-9.562564545
2.537523193,-0.02948867798,-9.50104248
2.483784943,0.001646575928,-9.570348358
2.575244751,-0.04670288086,-9.51511322
2.534230042,0.1209484863,-9.44146637
2.542013855,0.1234931946,-9.61690155
2.150278473,-0.1604663086,-9.569450226
2.285746765,-0.1851649475,-9.536668396
2.578238525,0.03817062378,-9.493408356
2.566413116,0.08771759033,-9.505383453
2.615061951,-0.04760101318,-9.476792908
2.512076111,0.03023712158,-9.571396179
2.40923996,-0.09430389404,-9.5233461
2.507585449,0.02395019531,-9.532776489
2.329306183,0.02469863892,-9.53038147
2.453996887,-0.02185455322,-9.57947937
2.483485565,0.01646575928,-9.499844971
2.617307281,0.0687071228,-9.493408356
2.50279541,-0.04790039063,-9.561816101
2.458038483,0.06092330933,-9.534273376
2.615511017,0.01167572021,-9.494456177
2.578388214,0.007783813477,-9.515711975
2.459235992,0.05358856201,-9.507479095
2.556383972,0.04999603271,-9.516759796
2.603086853,0.02290237427,-9.491163025
2.540816345,-0.02050735474,-9.504335632
2.485880585,0.03382965088,-9.555678864
2.534828796,0.02814147949,-9.507479095
2.453847198,0.005388793945,-9.526938629
2.550546112,0.04730163574,-9.527238007
2.510728912,0.04550537109,-9.558972015
2.527793427,0.02035766602,-9.514813843
2.435435486,0.02140548706,-9.505533142
2.485132141,0.08008346558,-9.530830536
2.427651672,-0.109871521,-9.634864197
2.552492065,0.001496887207,-9.572294312
2.415676575,0.02844085693,-9.516161041
2.486928406,-0.02514770508,-9.444160767
2.511477356,-0.1660047913,-9.483678589
2.738854523,0.03442840576,-9.564211121
2.659070435,0.1493893433,-9.435029755
2.482138367,0.06137237549,-9.478289795
2.451003113,0.008681945801,-9.507030029
2.413730621,0.07723937988,-9.538764038
2.438878326,0.08996292114,-9.565857697
2.431244202,0.1255888367,-9.494905243
2.407593384,0.05598358154,-9.679172058
2.200274506,0.04715194702,-9.499395905
2.256856842,0.04385879517,-9.583670654
2.188449097,0.08876541138,-9.599537659
2.264191589,0.1001417542,-9.534423065
2.201322327,0.1272354126,-9.622889099
2.228415985,0.1704954529,-9.606573029
2.312690735,0.2168989563,-9.601633301
2.127376099,0.1472937012,-9.572294312
2.065404968,0.06990463257,-9.654623108
2.110610962,0.1082249451,-9.594597931
2.019151154,0.07544311523,-9.675579529
2.044598236,0.1074765015,-9.633516998
1.997895355,0.103434906,-9.68710556
2.096240845,0.04206253052,-9.60402832
2.056124268,0.1830693054,-9.706116028
2.049687653,0.1062789917,-9.608818359
1.941462708,0.05538482666,-9.65911377
2.057920532,0.06691085815,-9.651479645
2.074985046,0.06376739502,-9.582622833
2.253414001,0.1269360352,-9.562564545
1.893562317,0.0426612854,-9.727371826
1.962718506,0.1796264648,-9.671088867
2.243235168,0.01451980591,-9.544152832
2.277962952,0.1692979431,-9.548044739
2.276915131,0.1169068909,-9.643995209
2.258353729,0.119002533,-9.602381744
2.22901474,0.1654060364,-9.577084351
2.218087463,0.1089733887,-9.606573029
2.256258087,0.09535171509,-9.552984467
2.299518127,0.1487905884,-9.559271393
2.35535202,0.1872605896,-9.577234039
2.266736298,0.07918533325,-9.587113495
2.311493225,0.1293310547,-9.549242249
2.269580383,0.1351689148,-9.610914001
2.37765564,0.1806742859,-9.53382431
2.301464081,0.1398092651,-9.59938797
2.288441162,0.1442999268,-9.56196579
2.253114624,0.1073268127,-9.566007385
2.245031433,0.1565744019,-9.629475403
2.244881744,0.09370513916,-9.495803375
2.313738556,0.1115180969,-9.623787231
2.136956177,0.1598675537,-9.618548126
2.284998322,0.1326242065,-9.545200653
2.307900696,0.1191522217,-9.588161316
2.201322327,0.07080276489,-9.54085968
2.203417969,0.1686991882,-9.602232056
2.178869019,0.1396595764,-9.563462677
2.274819489,0.1218466187,-9.568103027
2.26763443,0.1317260742,-9.598340149
2.22781723,0.06227050781,-9.633516998
2.188000031,0.08292755127,-9.567653961
2.176923065,0.1853146362,-9.611213379
2.220033417,0.1724414063,-9.504485321
2.15641571,0.0375718689,-9.626032562
2.225721588,0.126486969,-9.611961823
2.020348663,0.24923172,-9.620344391
1.908531189,0.1213975525,-9.637857971
1.955533447,0.0940045166,-9.610464935
1.990560608,0.0383203125,-9.592951355
2.037712555,0.05957611084,-9.663305054
2.003284149,0.08996292114,-9.655820618
1.966460724,0.09190887451,-9.69414093
1.914369049,0.06062393188,-9.599837036
1.962119751,0.009430389404,-9.593250732
2.066901855,0.1246907043,-9.676178284
2.152074738,0.1821711731,-9.64848587
2.084565125,0.1134640503,-9.505383453
2.050136719,0.1236428833,-9.61929657
2.120340729,0.1166075134,-9.639953613
2.218686218,0.1639091492,-9.556726685
2.111060028,0.1035845947,-9.605974274
2.056723022,0.1636097717,-9.624385986
2.063309326,0.07529342651,-9.641001434
2.212548981,0.1308279419,-9.613009644
2.193688202,0.1142124939,-9.598639526
2.163301392,0.0940045166,-9.619595947
2.169738007,0.1254391479,-9.594597931
2.152374115,0.1335223389,-9.595046997
2.185904388,0.1398092651,-9.613608398
2.204914856,0.1175056458,-9.595196686
2.248474274,0.1225950623,-9.587861938
2.163151703,0.1215472412,-9.601184235
2.248474274,0.1471440125,-9.59355011
2.137554932,0.07514373779,-9.589209137
2.203567657,0.167202301,-9.573940887
2.165247345,0.09490264893,-9.593101044
2.284249878,0.1221459961,-9.581275635
2.179018707,0.0687071228,-9.671537933
2.116149445,0.06077362061,-9.563013611
2.098486176,0.1068777466,-9.633966064
2.16704361,0.1161584473,-9.56196579
2.187550964,0.1181044006,-9.59938797
2.252665558,0.03936813354,-9.602830811
2.228415985,0.1651066589,-9.578730927
2.247127075,0.1975891113,-9.577683105
2.119292908,0.1574725342,-9.588760071
2.124082947,0.05718109131,-9.587562561
2.017354889,0.02948867798,-9.683063965
1.942809906,0.1547781372,-9.607920227
1.8884729,0.2692900085,-9.700876923
1.945653992,0.05433700562,-9.608818359
2.169438629,-0.05284011841,-9.679172058
2.019899597,0.102387085,-9.61809906
1.922003174,0.08128097534,-9.6321698
1.769620056,0.01092727661,-9.721983032
1.919757843,0.1044827271,-9.648635559
2.053729248,0.03682342529,-9.57828186
2.148631897,0.1026864624,-9.639504547
2.127974854,0.04281097412,-9.654922485
2.102527771,0.1077758789,-9.592502289
2.194736023,0.163460083,-9.588610382
2.291135559,0.08936416626,-9.568252716
2.220482483,-0.01511856079,-9.628128204
2.19743042,-0.06421646118,-9.609566803
2.114203491,0.1080752563,-9.536967773
2.278262329,0.06735992432,-9.640103302
2.242037659,-0.01571731567,-9.585616608
2.257455597,0.03817062378,-9.61345871
2.357597351,0.119002533,-9.53382431
2.444416809,-0.01916015625,-9.543105011
2.479593658,0.004041595459,-9.545200653
2.304607544,0.002694396973,-9.608818359
2.327809296,0.05388793945,-9.53502182
2.348915405,0.0758921814,-9.557774506
2.394720154,-0.01107696533,-9.527836761
2.417772217,0.05298980713,-9.638905792
2.478396149,0.02679428101,-9.460776215
2.3834935,0.04954696655,-9.546547852
2.374661865,-0.01706451416,-9.47305069
2.385140076,0.169896698,-9.569300537
2.948269043,0.004790039063,-9.539362793
2.615361328,0.2225871277,-9.354048157
2.09908493,0.2183958435,-9.709708557
2.443668365,-0.09205856323,-9.503736877
2.715652771,-0.05822891235,-9.442214813
2.669997711,0.05478607178,-9.479187927
2.939437408,0.02469863892,-9.468859406
2.766546936,0.07424560547,-9.490414581
2.536625061,0.1440005493,-9.458231506
2.445165253,0.09415420532,-9.525591431
2.583627319,0.02499801636,-9.499096527
2.69589386,0.0173638916,-9.520202637
2.550546112,-0.1303788757,-9.5233461
2.512674866,-0.03353027344,-9.425898743
2.397863617,0.1535806274,-9.574988708
2.603984985,0.05508544922,-9.545949097
2.681374054,-0.04161346436,-9.470955048
2.676883392,0.01197509766,-9.515412598
2.510429535,0.15328125,-9.475445709
2.544408875,-0.0005987548828,-9.598938904
2.505639496,-0.1440005493,-9.490863647
2.494113464,-0.03367996216,-9.480385437
2.529290314,0.135617981,-9.529782715
2.533032532,-0.1260379028,-9.555080109
2.575544128,-0.06780899048,-9.45074707
2.5215065,0.04565505981,-9.49295929
2.536325684,0.04475692749,-9.501940613
2.531835022,-0.01437011719,-9.526040497
2.535128174,0.002844085693,-9.513316956
2.540666656,0.004490661621,-9.52678894
2.545606384,0.02080673218,-9.495803375
2.483485565,0.01107696533,-9.483977966
2.488574982,0.007783813477,-9.563312988
2.559377747,-0.009879455566,-9.523645477
2.469863892,-0.03008743286,-9.492210846
2.46417572,-0.03367996216,-9.586065674
2.460882568,-0.04206253052,-9.539811859
2.483186188,-0.0008981323242,-9.502838745
2.466271362,-0.02559677124,-9.520052948
2.454745331,0.03098556519,-9.537117462
2.483186188,-0.01466949463,-9.543404388
2.494412842,-0.003592529297,-9.536518707
2.481838989,-0.02140548706,-9.521549835
2.466271362,-0.01107696533,-9.535470886
2.474354553,0.02020797729,-9.51391571
2.472258911,-0.01945953369,-9.520502014
2.475552063,-0.0043409729,-9.499844971
2.487976227,0.05673202515,-9.540709991
2.475252686,-0.01047821045,-9.546098785
2.498454437,-0.03457809448,-9.469158783
2.487227783,0.05852828979,-9.5631633
2.424059143,-0.007334747314,-9.565708008
2.55548584,-0.03068618774,-9.505533142
2.552042999,0.005688171387,-9.476194153
2.494861908,0.01197509766,-9.558223572
2.409988403,-0.04535568237,-9.576934662
2.478396149,-0.0130229187,-9.457183685
2.484832764,0.03412902832,-9.528734894
2.485132141,-0.04460723877,-9.519454193
2.505489807,0.02754272461,-9.558522949
2.539918213,-0.01167572021,-9.53621933
2.504891052,-0.002694396973,-9.48592392
2.448907471,-0.02993774414,-9.487869873
2.426454163,0.05837860107,-9.56076828
2.380499725,-0.01541793823,-9.570198669
2.611768799,-0.01826202393,-9.534273376
2.959495697,-0.08307723999,-9.223669281
2.904859314,0.2119592285,-9.589508514
2.486030273,-0.093256073,-9.478289795
2.510579224,0.1483415222,-9.495653687
2.326312408,0.04430786133,-9.571994934
2.500849457,-0.07948471069,-9.513167267
2.653082886,-0.002993774414,-9.474697266
2.916834412,0.05463638306,-9.428144073
2.909649353,-0.08158035278,-9.438322906
2.84213974,-0.07200027466,-9.443562012
2.615061951,-0.02035766602,-9.538913727
2.630928955,0.004939727783,-9.465266876
2.731968842,-0.0983454895,-9.44490921
2.775827637,-0.1743873596,-9.435329132
2.772384796,-0.05508544922,-9.467661896
2.812501373,-0.05643264771,-9.367969208
2.817441101,-0.07065307617,-9.464967499
2.737058258,-0.1148112488,-9.49520462
2.792742462,-0.09639953613,-9.372310181
2.827919312,-0.145796814,-9.42155777
2.792592773,-0.09026229858,-9.404493256
2.837948456,-0.1362167358,-9.454189911
2.721790009,-0.001796264648,-9.448202362
2.842738495,-0.1284329224,-9.373208313
2.816243591,-0.01616638184,-9.48233139
2.884202271,-0.06197113037,-9.396709442
2.789748688,-0.03278182983,-9.435029755
2.832260284,-0.09550140381,-9.452842712
2.729573822,-0.06511459351,-9.496701508
2.827170868,-0.1158590698,-9.385632477
2.809208221,0.03263214111,-9.423803101
2.797233124,-0.2830613708,-9.414672089
2.8877948,-0.1097218323,-9.495503998
2.687960358,-0.0549357605,-9.410031738
2.691702576,-0.05733078003,-9.462871857
2.80935791,-0.0008981323242,-9.376052399
2.982398071,-0.1655557251,-9.304052124
2.888094177,0.02874023438,-9.606573029
2.704426117,0.06271957397,-9.44610672
2.653681641,0.0303868103,-9.458231506
2.583926697,-0.01901046753,-9.477990417
2.881807251,-0.07828720093,-9.353898468
2.900368652,0.1342707825,-9.53741684
2.621199188,0.1049317932,-9.372908936
2.696791992,0.1014889526,-9.537267151
2.756068726,-0.1032852173,-9.5034375
2.695594482,0.09550140381,-9.502689056
2.605182495,-0.01541793823,-9.41916275
2.442620544,-0.01332229614,-9.521250458
2.533481598,0.1184037781,-9.531429291
2.564916229,-0.01766326904,-9.478439484
2.675236816,0.0513432312,-9.499695282
2.630180511,-0.01332229614,-9.447902985
2.586172028,0.03981719971,-9.528435516
2.55892868,0.03248245239,-9.492510223
2.566113739,-0.0252973938,-9.514514465
2.463127899,0.02514770508,-9.530231781
2.632276154,0.03727249146,-9.522298279
2.468666382,-0.0896635437,-9.491312714
2.544109497,0.07559280396,-9.4543396
2.570754089,0.03607498169,-9.547296295
2.612217865,-0.08322692871,-9.493857422
2.626587982,-0.002245330811,-9.474248199
2.47121109,0.1378633118,-9.489516449
2.564467163,-0.05478607178,-9.508676605
2.6701474,-0.1151106262,-9.557325439
2.592458954,-0.06197113037,-9.486822052
2.563419342,0.05089416504,-9.482181702
2.580334167,-0.01571731567,-9.483977966
2.607727203,0.01317260742,-9.503138123
2.533032532,-0.0347277832,-9.481133881
2.631827087,0.02065704346,-9.527088318
2.557431793,-0.01407073975,-9.45314209
2.6104216,0.03427871704,-9.492510223
2.615211639,-0.0390687561,-9.545799408
2.638413391,-0.02754272461,-9.490414581
2.617307281,0.004939727783,-9.437424774
2.549498291,0.06017486572,-9.402247925
2.572700043,-0.1053808594,-9.45897995
2.722987518,0.02859054565,-9.582024078
2.783461761,-0.1104702759,-9.389075317
2.726879425,0.2171983337,-9.615254974
2.628234558,0.02335144043,-9.446256409
2.720293121,-0.03308120728,-9.444609833
2.523452454,0.05523513794,-9.539213104
2.591411133,0.04116439819,-9.461524658
2.55548584,0.1905537415,-9.525890808
2.578687592,-0.02350112915,-9.437275085
2.861898651,0.04745132446,-9.501341858
2.766397247,0.07379653931,-9.432485046
2.821482697,-0.02724334717,-9.491163025
2.747835846,0.07918533325,-9.411378937
2.561174011,0.1945953369,-9.575437775
2.590213623,-0.1924996948,-9.389524384
2.787054291,-0.02844085693,-9.406738586
2.940185852,-0.09969268799,-9.474846954
3.065175934,-0.01541793823,-9.475894775
2.673889618,0.1095721436,-9.448052673
2.55548584,0.02769241333,-9.454788666
2.746638336,-0.006735992432,-9.474846954
2.726580048,-0.02305206299,-9.43083847
2.614762573,-0.1977388,-9.389674072
2.878963165,-0.05972579956,-9.494156799
2.910547485,-0.001047821045,-9.448950806
2.795736237,0.02874023438,-9.437275085
2.571502533,0.08277786255,-9.472002869
2.553988953,0.04805007935,-9.506431274
2.838098145,0.1392105103,-9.59474762
2.517165527,-0.1788780212,-9.426048431
2.682122498,0.09280700684,-9.565258942
2.55309082,0.1612147522,-9.338330841
2.628983002,0.09744735718,-9.550439758
2.577639771,-0.1631607056,-9.526938629
2.579436035,0.02185455322,-9.441316681
2.554737396,0.07873626709,-9.567953339
2.543660431,0.01242416382,-9.449549561
2.592159576,-0.02514770508,-9.543105011
2.463876343,-0.0002993774414,-9.498647461
2.575095062,0.08502319336,-9.514065399
2.516117706,-0.03068618774,-9.506281586
2.573448486,-0.06601272583,-9.495953064
2.615810394,0.008981323242,-9.543105011
2.559228058,-0.009430389404,-9.496551819
2.521805878,0.04026626587,-9.47305069
2.54605545,-0.0209564209,-9.521849213
2.549049225,0.01541793823,-9.494456177
2.617007904,0.04176315308,-9.463021545
2.551743622,0.05224136353,-9.520801392
2.590063934,-0.01422042847,-9.524992676
2.576292572,-0.02469863892,-9.536967773
2.591261444,0.06227050781,-9.443112946
2.543660431,-0.01541793823,-9.555379486
2.566862183,-0.03293151855,-9.492659912
2.591111755,-0.007185058594,-9.508227539
2.606080627,0.01601669312,-9.534273376
2.527643738,0.008681945801,-9.516759796
2.575095062,0.03263214111,-9.49879715
2.55892868,-0.00209564209,-9.54789505
2.603086853,0.02035766602,-9.41796524
2.577190704,-0.001496887207,-9.516759796
2.567760315,0.04251159668,-9.474996643
2.606829071,-0.04116439819,-9.544003143
2.567011871,0.0375718689,-9.495653687
2.536026306,0.05014572144,-9.483977966
2.583926697,0.002844085693,-9.553583221
2.551294556,0.01347198486,-9.471404114
2.606380005,0.02305206299,-9.492659912
2.575544128,0.06032455444,-9.502389679
2.552342377,-0.01706451416,-9.491163025
2.579436035,-0.006735992432,-9.509574738
2.607577515,-0.004490661621,-9.473200378
2.587668915,-0.01826202393,-9.499545593
2.582729187,-0.001047821045,-9.487720184
2.598446503,-0.008831634521,-9.549691315
2.570754089,-0.01017883301,-9.437125397
2.553539886,0.08906478882,-9.477391663
2.553839264,0.05463638306,-9.504185944
2.548600159,0.01137634277,-9.535620575
2.720592499,-0.02155517578,-9.475745087
2.553539886,0.01811233521,-9.451196136
2.541864166,0.06601272583,-9.505982208
2.673141174,0.01167572021,-9.525142365
2.565814362,-0.03412902832,-9.422156525
2.548001404,0.08562194824,-9.493558044
2.567460938,-0.008382568359,-9.506880341
2.579136658,0.04146377563,-9.491462402
2.587818604,0.09460327148,-9.51391571
2.664908295,-0.03861968994,-9.517358551
2.622696075,0.03442840576,-9.467063141
2.544708252,0.04670288086,-9.564959564
2.61281662,0.02335144043,-9.462572479
2.601440277,0.02350112915,-9.491911469
2.523452454,-0.07364685059,-9.537267151
2.565514984,0.0904119873,-9.444460144
2.625390472,0.03951782227,-9.496551819
2.640658722,0.007334747314,-9.485175476
2.711910553,0.0303868103,-9.469009094
2.571652222,0.137713623,-9.549391937
2.687062225,-0.02305206299,-9.509874115
2.613714752,0.0007484436035,-9.48592392
2.522404633,0.08741821289,-9.545799408
2.634371796,0.1357676697,-9.45074707
2.613265686,-0.08187973022,-9.507179718
2.634521484,0.001496887207,-9.486822052
2.618355103,0.01841171265,-9.519753571
2.596201172,0.01272354126,-9.479936371
2.589764557,-0.06062393188,-9.429042206
2.597698059,0.06765930176,-9.511221313
2.570903778,-0.03188369751,-9.529333649
2.605481873,0.03577560425,-9.520651703
2.665057983,0.03248245239,-9.491312714
2.555785217,-0.01437011719,-9.473799133
2.614163818,0.01392105103,-9.492809601
2.63976059,0.003293151855,-9.49879715
2.662213898,-0.02290237427,-9.503736877
2.594255219,0.01571731567,-9.482630768
2.571951599,0.03098556519,-9.469607849
2.566562805,0.001047821045,-9.539213104
2.626438293,-0.004939727783,-9.481133881
2.619702301,0.009729766846,-9.485025787
2.633473663,0.03592529297,-9.471404114
2.646197205,-0.01002914429,-9.487420807
2.596350861,-0.01916015625,-9.49759964
2.538121948,0.001496887207,-9.507179718
2.561473389,-0.04101470947,-9.485624542
2.618055725,0.02634521484,-9.482032013
2.600093079,0.001197509766,-9.516161041
2.640658722,-0.03382965088,-9.476643219
2.584824829,0,-9.49640213
2.620301056,0.02784210205,-9.498647461
2.606529694,-0.005837860107,-9.501940613
2.612966309,0.02275268555,-9.491013336
2.62688736,0.060025177,-9.535171509
2.59994339,-0.04999603271,-9.472751312
2.601589966,0.01422042847,-9.485025787
2.562670898,-0.01032852173,-9.508227539
2.580483856,-0.05553451538,-9.529932404
2.595003662,-0.0002993774414,-9.51391571
2.573598175,-0.01481918335,-9.467811584
2.574346619,0.06526428223,-9.495354309
2.618953857,-0.03547622681,-9.513766022
2.593955841,-0.04610412598,-9.492210846
2.695594482,0.0679586792,-9.448352051
2.573897552,-0.07888595581,-9.524992676
2.487078094,0.02110610962,-9.526938629
2.568059692,0.07634124756,-9.464219055
2.643951874,0.03278182983,-9.50104248
2.672093353,-0.05463638306,-9.507179718
2.693199463,0.008083190918,-9.466314697
2.586172028,0.05897735596,-9.568851471
2.553539886,-0.033230896,-9.464219055
2.610571289,-0.002544708252,-9.510323181
2.55309082,-0.02574645996,-9.517059174
2.612666931,0.04490661621,-9.49759964
2.617906036,-0.02574645996,-9.49176178
2.587968292,-0.0004490661621,-9.514215088
2.648292847,0.03921844482,-9.467811584
2.579286346,0.02409988403,-9.542206879
2.608026581,-0.03188369751,-9.498198395
2.620899811,0.03053649902,-9.498048706
2.595901794,-0.0005987548828,-9.48816925
2.615061951,0.02245330811,-9.48233139
2.600691833,-0.01347198486,-9.499096527
2.582130432,0.005987548828,-9.466614075
2.590812378,0.002844085693,-9.501192169
2.602787476,-0.01466949463,-9.481133881
2.611768799,0.06466552734,-9.509874115
2.630030823,0.04161346436,-9.471104736
2.595003662,-0.04879852295,-9.527387695
2.582280121,0.02784210205,-9.45194458
2.671045532,0.02559677124,-9.510023804
2.583477631,-0.002395019531,-9.49879715
2.583777008,-0.007634124756,-9.487720184
2.665357361,0.03233276367,-9.505533142
2.605332184,-0.008831634521,-9.520801392
2.607128448,0.005837860107,-9.475595398
2.611020355,0.0549357605,-9.507778473
2.577041016,-0.0592767334,-9.457632751
2.606230316,-0.04954696655,-9.508227539
2.616708527,0.08816665649,-9.483977966
2.622247009,-0.01451980591,-9.508526917
2.669848022,-0.01047821045,-9.485624542
2.599194946,0.03188369751,-9.467661896
2.613265686,0.03008743286,-9.509874115
2.619103546,-0.03652404785,-9.52918396
2.615511017,-0.0209564209,-9.447004852
2.596799927,-0.02874023438,-9.527238007
2.575693817,-0.07694000244,-9.458381195
2.748284912,0.1660047913,-9.458530884
2.55309082,-0.1011895752,-9.517657928
2.610122223,-0.07214996338,-9.504485321
2.624342651,0.03382965088,-9.47888855
2.574047241,-0.00209564209,-9.460776215
2.70412674,0.09550140381,-9.497449951
2.608325958,-0.04715194702,-9.504335632
2.610122223,0.03068618774,-9.499246216
2.580483856,0.04849914551,-9.483828278
2.6104216,-0.03263214111,-9.502090302
2.610271912,0.00643661499,-9.504784698
2.612666931,-0.005837860107,-9.499096527
2.590213623,-0.03802093506,-9.491163025
2.537822571,-0.02499801636,-9.494156799
2.567910004,-0.02754272461,-9.51167038
2.58587265,0.033230896,-9.515262909
2.620301056,-0.03517684937,-9.498048706
2.589165802,-0.03188369751,-9.511520691
2.582130432,-0.001945953369,-9.505084076
2.549348602,0.03502716064,-9.499395905
2.570005646,-0.01616638184,-9.521549835
2.575095062,0.0260458374,-9.52678894
2.576891327,0.001945953369,-9.47769104
2.649640045,0.01571731567,-9.501641235
2.580184479,-0.01841171265,-9.507030029
2.551444244,0.0173638916,-9.495354309
2.562371521,0.01182540894,-9.511520691
2.574645996,-0.01930984497,-9.501341858
2.625989227,-0.03158432007,-9.523046722
2.587668915,0.02829116821,-9.485175476
2.573747864,0.01212478638,-9.543105011
2.582130432,0.02350112915,-9.451196136
2.610271912,-0.008981323242,-9.501341858
2.615511017,-0.02874023438,-9.48592392
2.568957825,-0.004041595459,-9.507628784
2.619402924,0.009430389404,-9.498497772
2.606080627,0.02350112915,-9.536518707
2.560425568,0.006586303711,-9.492360535
2.605332184,0.02290237427,-9.499844971
2.614762573,-0.003742218018,-9.521998901
2.571652222,0.02993774414,-9.47769104
2.631827087,-0.05164260864,-9.498647461
2.565065918,0.008232879639,-9.502389679
2.583178253,0.02065704346,-9.501790924
2.578238525,-0.01002914429,-9.517957306
2.659519501,0.01047821045,-9.518106995
2.578388214,0.005239105225,-9.504934387
2.612068176,-0.05254074097,-9.46945816
2.494113464,0.02305206299,-9.522897034
2.602039032,0.001197509766,-9.513466644
2.676733704,0.02859054565,-9.467961273
2.632126465,-0.08936416626,-9.490264893
2.58467514,0.01047821045,-9.532477112
2.519710236,0.001197509766,-9.521250458
2.599344635,0.01481918335,-9.484427032
2.693199463,0.02574645996,-9.525441742
2.575244751,-0.1164578247,-9.492061157
2.546354828,0.07065307617,-9.505982208
2.571502533,0.01811233521,-9.483079834
2.63976059,-0.01796264648,-9.483678589
2.608775024,-0.02619552612,-9.491312714
2.599644012,-0.02245330811,-9.520502014
2.584076385,-0.01676513672,-9.51391571
2.592309265,0.05029541016,-9.48233139
2.685565338,0.02784210205,-9.506131897
2.598296814,-0.07918533325,-9.462871857
2.593955841,0.05448669434,-9.52798645
2.540966034,-0.0643661499,-9.492210846
2.56955658,-0.00853225708,-9.51047287
2.580783234,0.04909790039,-9.477840729
2.673440552,-0.04281097412,-9.537566528
2.554138641,-0.02754272461,-9.432335358
2.63152771,0.05074447632,-9.548194427
2.586321716,-0.03173400879,-9.487720184
2.636018372,0.01676513672,-9.503138123
2.587968292,0.007484436035,-9.521699524
2.564916229,-0.02350112915,-9.460327148
2.590662689,0.03966751099,-9.531429291
2.579585724,-0.03562591553,-9.491462402
2.654579773,-0.009729766846,-9.482032013
2.62329483,0.03023712158,-9.533973999
2.668201447,0.01856140137,-9.472302246
2.62688736,-0.04370910645,-9.471104736
2.579136658,0.0347277832,-9.572593689
2.566113739,0.04640350342,-9.467661896
2.719095612,0.09011260986,-9.528285828
2.650388489,-0.1715432739,-9.385782166
2.518363037,-0.005987548828,-9.514664154
2.231260071,0.1281335449,-9.669292603
2.433639221,-0.01437011719,-9.447902985
2.985990601,0.004790039063,-9.478439484
2.669848022,-0.05523513794,-9.492809601
2.548001404,0.1065783691,-9.548643494
2.492017822,0.005239105225,-9.528136139
2.486778717,-0.05897735596,-9.52454361
2.583477631,0.07319778442,-9.444310455
2.552192688,0.1374142456,-9.558672638
2.73451355,-0.06212081909,-9.467811584
2.738255768,0.0809815979,-9.486822052
2.707270203,0.1094224548,-9.433981934
2.559826813,0.03367996216,-9.536668396
2.480491791,0.09909393311,-9.521849213
2.466720428,0.09475296021,-9.535171509
2.523302765,-0.007783813477,-9.50223999
2.534230042,0.05194198608,-9.51750824
2.394720154,0.1769320679,-9.605076141
2.318678284,0.1064286804,-9.55957077
2.383194122,0.08921447754,-9.552236023
2.283800812,0.03128494263,-9.488318939
2.26059906,0.1076261902,-9.639654236
2.187850342,0.05014572144,-9.605974274
2.066752167,0.1478924561,-9.605375519
1.931433563,0.1396595764,-9.733658752
1.948348389,0.1112187195,-9.639654236
2.054028625,0.06092330933,-9.609267426
1.812580719,-0.04640350342,-9.662107544
1.980830841,0.04610412598,-9.6613591
1.858684845,0.1206491089,-9.647887115
1.838027802,0.1571731567,-9.661957855
1.749561768,-0.04969665527,-9.653724976
2.004781036,0.06526428223,-9.661808167
1.849404144,0.08831634521,-9.738748169
1.944606171,0.07379653931,-9.613608398
1.818568268,-0.03098556519,-9.689650269
1.935924225,0.09654922485,-9.645641785
1.948049011,0.05613327026,-9.64848587
1.977388,0.1321751404,-9.63800766
1.996248779,0.03817062378,-9.677525482
2.026036835,0.1305285645,-9.606722717
2.077679443,0.1332229614,-9.669741669
2.10147995,0.04790039063,-9.648186493
2.188898163,0.08831634521,-9.564959564
2.12019104,0.05089416504,-9.635762329
2.056273956,0.1178050232,-9.616153107
2.023791504,0.102387085,-9.619895325
2.147883453,0.1691482544,-9.629026337
2.133213959,0.1134640503,-9.596843262
2.138303375,0.09056167603,-9.613009644
2.141147461,0.07080276489,-9.613907776
2.111808472,0.145796814,-9.59699295
2.105222168,0.08472381592,-9.65552124
2.072290649,0.07843688965,-9.584269409
2.134710846,0.1161584473,-9.602082367
2.063758392,0.16615448,-9.632918243
2.231858826,0.1719923401,-9.61106369
1.994602203,0.05822891235,-9.571695557
1.910477142,0.03143463135,-9.722581787
2.003433838,0.08232879639,-9.59115509
2.007325745,0.06915618896,-9.635163574
2.059716797,0.1347198486,-9.636211395
1.987866211,0.1088237,-9.629325714
2.052681427,0.1164578247,-9.634564819
2.066303101,0.093256073,-9.601633301
2.106419678,0.0628692627,-9.653126221
2.127076721,0.1242416382,-9.587562561
2.049687653,0.2100132751,-9.650282135
1.975442047,0.1294807434,-9.668993225
2.017354889,0.02903961182,-9.651629333
2.055675201,0.1160087585,-9.639504547
1.925296326,0.1004411316,-9.637708282
1.869911499,0.1257385254,-9.611812134
1.912872162,0.03098556519,-9.628726959
1.943708038,0.07873626709,-9.698481903
1.868414612,0.1193019104,-9.670639801
1.926643524,0.06107299805,-9.661209412
1.768422546,-0.0137713623,-9.636211395
1.860930176,-0.04984634399,-9.654473419
2.060016174,0.1228944397,-9.703122253
2.025587769,0.08577163696,-9.62393692
2.103425903,0.076640625,-9.639654236
2.077829132,-0.03457809448,-9.634265442
2.038910065,0.1001417542,-9.603728943
2.143841858,0.1296304321,-9.671987
2.272125092,0.04236190796,-9.55493042
2.146536255,-0.01197509766,-9.560618591
2.177970886,0.001945953369,-9.64504303
2.230811005,0.09669891357,-9.537267151
2.361938324,0.09595046997,-9.562414856
2.27227478,-0.06646179199,-9.592502289
2.312241669,-0.03442840576,-9.558672638
2.481988678,0.1435514832,-9.528884583
2.401905212,0.01077758789,-9.497150574
2.448159027,0.005538482666,-9.629026337
2.396217041,0.08008346558,-9.526040497
2.452050934,0.007334747314,-9.542805634
2.400857391,-0.0001496887207,-9.567354584
2.407294006,0.03083587646,-9.605974274
2.359842682,0.07948471069,-9.506730652
2.406545563,0.04685256958,-9.558522949
2.345622253,-0.02110610962,-9.609117737
2.35774704,0.007783813477,-9.570498047
2.375110931,0.0470022583,-9.539213104
2.332898712,0.02544708252,-9.602830811
2.358046417,0.09355545044,-9.542655945
2.341131592,-0.09175918579,-9.505533142
2.405198364,0.1184037781,-9.597292328
2.409988403,0.02260299683,-9.556726685
2.399210815,-0.03622467041,-9.504934387
2.331401825,0.04221221924,-9.589508514
2.352507935,0.01781295776,-9.543105011
2.420167236,0.00628692627,-9.54085968
2.412084045,0.01841171265,-9.512418823
2.428250427,0.04026626587,-9.539811859
2.409389648,-0.01197509766,-9.54669754
2.383343811,0.0005987548828,-9.542356567
2.424059143,0.00628692627,-9.565857697
2.42091568,-0.01032852173,-9.54669754
2.434387665,0.007334747314,-9.516909485
2.418670349,-0.1028361511,-9.450447693
2.548300781,0.06780899048,-9.558223572
2.465073853,-0.01616638184,-9.521100769
2.520009613,-0.1176553345,-9.494456177
2.392175446,0.07484436035,-9.541159058
2.448308716,-0.08083190918,-9.51047287
2.489173737,-0.01317260742,-9.567953339
2.440075836,-0.003742218018,-9.507628784
2.448159027,0.01826202393,-9.555678864
2.490670624,-0.0375718689,-9.561516724
2.433938599,-0.0339793396,-9.524393921
2.456092529,-0.04520599365,-9.538015594
2.418670349,-0.001047821045,-9.51047287
2.479294281,-0.06661148071,-9.538614349
2.438878326,-0.02290237427,-9.481732635
2.468666382,0.005388793945,-9.558073883
2.450254669,-0.01092727661,-9.515412598
2.555336151,-0.01841171265,-9.541458435
2.497107239,0.005538482666,-9.497000885
2.468666382,0.01481918335,-9.589508514
2.407144318,-0.0288899231,-9.487121429
2.491868134,0.06421646118,-9.559121704
2.405497742,-0.06271957397,-9.558073883
2.420466614,-0.01272354126,-9.513616333
2.442321167,0.09026229858,-9.528734894
2.297123108,-0.07514373779,-9.575886841
2.441273346,-0.09894424438,-9.567953339
2.359243927,-0.01451980591,-9.510173492
2.287243652,0.1203497314,-9.604776764
2.322719879,-0.008831634521,-9.545050964
2.405348053,-0.01945953369,-9.570348358
2.412982178,0.03068618774,-9.570498047
2.341430969,0.03697311401,-9.564959564
2.358046417,0.05403762817,-9.534123688
2.331401825,0.03128494263,-9.539811859
2.377505951,0.01272354126,-9.551637268
2.363734589,0.0889151001,-9.582473145
2.385439453,0.05254074097,-9.541907501
2.404449921,0.01451980591,-9.586664429
2.396815796,0.03652404785,-9.608369293
2.308649139,0.07364685059,-9.552984467
2.342029724,0.05089416504,-9.55493042
2.428250427,-0.009280700684,-9.541009369
2.433040466,-0.03263214111,-9.495653687
2.401755524,0.2109114075,-9.669891357
2.223027191,-0.03083587646,-9.514514465
2.441423035,-0.02290237427,-9.567055206
2.428699493,0.004490661621,-9.522747345
2.43962677,0.1240919495,-9.577982483
2.338287506,0.08143066406,-9.605974274
2.278861084,0.002544708252,-9.53741684
2.364932098,-0.06107299805,-9.555080109
2.37765564,0.06466552734,-9.532626801
2.289488983,0.1101708984,-9.630822601
2.212399292,0.04805007935,-9.559421082
2.28634552,-0.00643661499,-9.62049408
