AccX,AccY,AccZ
-5.259163513,0.4370910645,-3.485950928
-2.31328949,-10.61053528,-2.506088562
-1.943857727,-7.892337799,-2.489024048
-3.784579926,-7.030280457,-5.167254639
-2.589614868,-9.307494965,-2.087259521
-3.793261871,-9.200317841,-0.259410553
-3.258873138,-17.39637405,-7.103478241
-6.330485687,-9.795180817,-0.8726852417
-0.06631210327,-12.09724365,0.07903564453
2.414029999,-11.15824631,-3.706592102
-0.1695973206,-7.138355713,-1.284029846
-2.660118256,-9.088949432,-2.749482422
-3.081342316,-6.159241791,-2.902314606
-5.635780334,-9.64504303,-2.386636963
-0.1642085266,-7.897277527,-2.42211319
0.1583706665,-9.339378662,-3.150049438
-0.7390132141,-9.120084686,-4.435725861
-4.175866241,-7.050787811,-5.139562225
-5.844895477,-10.56817337,-5.818999329
-2.877915344,-13.2538884,-3.226839752
-4.469555511,-7.483088837,-1.219064941
-4.705914001,-3.315754852,-2.603685608
-3.12175827,-4.539160767,-1.041085052
-1.259181519,-5.813161469,-0.2433938599
-3.464994507,-10.78252762,-7.839946747
-3.939208374,-11.35703293,-3.776646423
-6.159092102,-9.243428192,-0.7373666382
-3.973038025,-16.28044464,-2.154918823
-1.956880646,-9.004674683,-0.940045166
-0.9262738037,-10.74450668,-0.04864883423
0.7912545776,-6.079906769,-2.666854248
-1.178349609,-5.587730255,-2.883753204
-4.037104797,-10.59377014,-1.254840546
-0.8077203369,-6.920708313,-6.275400238
-0.7909552002,-10.66786606,-1.533111877
-2.947071533,-7.410789185,-7.971223755
-1.42638382,-7.34926712,-2.485132141
-2.751278687,-11.77062286,-7.417674866
-3.845952301,-13.69726639,-1.937870178
-4.114942932,-1.251248016,-1.682201843
-4.871320038,-10.6301445,-1.356778564
-2.967728577,-6.177803192,-2.797831879
-4.942122803,-9.956545258,-7.116201782
-2.949167175,-8.121361542,-3.841162262
-1.951641541,-7.722291412,-2.357447662
-3.418441315,-12.83595749,-0.8812174988
-6.590345306,-14.50977676,-2.637664948
-1.398392029,-5.820795593,0.03532653809
-0.4697232056,-15.10688507,1.327439575
-0.3826043701,-6.238127747,-5.885461121
-1.099313965,-8.189170532,-4.078718262
-1.153950348,-8.571325836,-2.121538239
-2.064207458,-7.428003387,-3.494183807
-1.269659729,-8.618627472,-1.599423981
-0.904119873,-10.21191422,-4.544848938
-0.8442443848,-6.921756134,-4.422104187
-1.504521332,-7.25331665,-6.53376297
-1.759890289,-13.43950241,-3.134182434
-4.716092834,-15.14206192,-4.408183136
-5.204826508,-1.985770569,-2.017654266
-5.599855042,-6.511459351,-2.219584351
-3.030747528,-6.855294342,-1.137933655
-1.343007202,-7.643704834,-1.584604797
-2.068548431,-9.814939728,-5.420078888
-2.164199524,-8.047415314,-2.800675964
-4.299658813,-9.526938629,-0.1775308228
-6.595584412,-14.30769699,-3.322939911
-3.966900787,-9.888736267,-1.035995636
-0.8729846191,-8.944799194,0.05688171387
0.2188449097,-16.4150148,-0.5325924683
-0.5182223511,-5.860762482,-2.730172577
-0.2025288391,-8.552015991,-1.527274017
-2.260449371,-6.312523041,-1.316512299
-6.484216003,-10.17404297,-3.40496933
-0.9782157898,-9.140592041,-2.602338409
1.39000946,-7.824977875,-5.402116241
-2.633024597,-9.217382355,-4.299359436
-1.326990509,-14.89717117,-6.140979767
-0.9060658264,-13.28921494,-2.674338684
-3.43999649,-5.307213593,-3.153641968
-2.501298523,-7.85012558,-1.97858551
-2.368374939,-7.442074127,-2.987786865
-2.476300507,-6.567293243,-3.933520203
-2.357148285,-8.420289917,-0.7671546936
-2.101929016,-8.250842285,-0.3411405945
-6.988666992,-11.03654938,0.07409591675
-6.641838226,-11.04523132,2.751727753
-0.2167492676,-24.81674332,1.21337677
1.679507446,-4.275109863,-2.088307343
1.80315033,-9.179810486,1.633852386
-0.4117936707,-7.889793091,2.260748749
-2.169887695,-11.19791382,1.92005722
-2.686313782,-10.57640625,-0.6480024719
1.059047699,-9.311985626,0.2802172852
-0.320483551,-8.932973785,2.866838379
0.2089654541,-9.865235138,1.976789246
-1.577120361,-10.16221756,-1.140029297
-0.01556762695,-10.73013657,-0.6132746887
0.373024292,-10.26445496,3.092718658
0.1490899658,-15.81371521,2.514171753
-2.66311203,-13.52093307,-3.175496521
-2.906805267,-13.55940308,0.4150868225
-4.485572205,-11.53591095,2.6303302
-3.285068665,-10.82024918,-5.123096466
-1.47084137,-7.651488647,2.494263153
-1.294508057,-0.9104067993,-0.9610015869
-3.155288544,-1.883233795,-3.956871643
-1.32339798,-4.414470062,-4.415966949
-6.211034088,-9.421857147,-6.777605896
-4.97520401,-5.667514343,-2.053429871
-2.240840149,-11.42618912,-3.349584503
-1.614093475,-10.90646988,-2.057621155
-1.302890625,-10.83207458,-1.96107193
-2.854114838,-9.681417389,-0.6854246521
-2.613265686,-9.914782104,-0.9666897583
-0.7529342651,-8.967701569,-2.90411087
0.02275268555,-7.856861572,-2.156565399
-0.9590556335,-8.854836273,-1.231938171
-1.931583252,-8.978179779,-0.01766326904
-1.639390869,-10.66816544,1.179547119
-1.934277649,-11.2446167,2.45010498
-0.4535568237,-15.38440796,3.149750061
-0.2127076721,-13.32603836,1.566342773
-4.30594574,-9.454040222,-10.94299393
-5.054838409,-12.24887833,-2.881507874
-4.862488403,-11.96162567,6.006409607
-0.7147636414,-12.63073425,-3.704646149
-3.104843445,-3.999083862,-1.04018692
-2.982697449,-1.489702148,-3.142565002
-1.389560394,-1.739832001,-3.457360382
-2.101330261,-2.282453613,-4.829856262
-5.891897736,-5.76735672,-9.927505646
-6.358028412,-14.15606232,-8.091573486
-2.953957214,-7.449857941,-4.273014221
-0.9663903809,-7.964936829,-3.386407928
-1.34330658,-9.872120819,-2.81519577
-5.339396667,-10.87862778,-1.761836243
-2.996169434,-9.598040771,-1.864522705
-0.4816983032,-10.51653076,-2.88539978
-1.806443481,-9.028175812,-2.546953583
-2.116598511,-8.382268982,-2.158361664
-0.6969506836,-7.423812103,-0.7206015015
-2.407593384,-10.63343765,0.9800120544
-2.988684998,-12.68087997,1.816472626
-1.467697906,-13.83228561,3.08673111
-0.1118174744,-8.21521637,0.3965254211
-2.334245911,-11.78544205,-7.551945648
-9.38757843,-11.62123352,-2.609074402
-4.544100494,-10.33570679,2.315684509
0.3019221497,-10.10518616,-3.372935944
-4.787494354,-5.893544312,-2.790796509
-2.898572388,-4.277654572,-3.573818207
-1.106798401,-1.420995026,-3.740421753
-2.447709961,-1.394949188,-5.378016357
-2.375410309,-2.216889954,-4.081712036
-7.94368103,-15.0534462,-12.06805435
-2.182311859,-5.60120224,-2.482587433
-1.104403381,-3.18732193,-5.699697418
-4.633314972,-14.00173325,-1.632505188
-1.306183777,-7.421417084,-2.963686981
-3.254681854,-10.76606186,-1.610950012
-1.991907806,-9.087452545,-3.090473328
-1.56559433,-10.67669769,-2.021695862
-1.168470154,-8.526868286,-1.573976898
-1.424138489,-9.446555786,-1.452729034
-1.46260849,-8.145311737,-1.293759613
-0.8340655518,-9.235045624,0.3270698547
-1.620979156,-10.68403244,0.9738748169
-0.9487271118,-12.06955124,1.471889191
0.3083587646,-13.77899643,1.910626831
-1.299298096,-11.31736542,1.876647491
-4.20056488,-9.811047821,-6.837182007
-5.417234802,-10.09635452,-5.240302734
-9.282796326,-13.36331085,1.753453674
-0.785716095,-13.66134109,-4.395908661
-2.407593384,-6.722221069,-1.924697571
-3.59103241,-2.896476746,-3.894601135
-3.194506989,-3.036136322,-3.597469025
-2.359543304,-2.195634155,-4.399950256
-2.110311584,-2.777923279,-5.515131226
-6.660249939,-6.192622375,-11.4529834
-6.325396271,-10.676548,-4.003873901
0.003442840576,-4.414919128,-5.47246994
-6.664441223,-13.03010376,-4.457730103
-0.7466473389,-6.773115234,-3.779191132
-3.694467316,-8.349487152,-2.636617126
-1.388811951,-11.78095139,-3.444038086
-0.2878514099,-9.559271393,-2.533481598
-0.2249821472,-9.174421692,-1.921703796
-0.3725752258,-9.915380859,-1.522483978
-0.7923023987,-9.854906616,-1.138382721
-1.505419464,-7.767946472,-0.08696914673
-2.65143631,-9.114546204,0.453407135
-4.447700958,-11.41930344,0.4477189636
-2.686313782,-8.335865479,-1.64747406
-0.7662565613,-10.18482056,1.011596375
0.7111711121,-13.8430632,1.681303711
1.848206635,-11.5007341,2.067201233
-1.329086151,-12.39018448,2.408341827
0.02245330811,-10.92458221,-14.29647034
-3.761078796,-8.947792969,-2.424208832
-9.397457886,-6.834038544,3.5208284
0.3561094666,-9.183103638,-3.229534149
0.6481521606,-8.208630066,-0.6352789307
-2.594404907,-6.9022966,-2.512974243
-7.6640625,-9.589508514,-3.150648193
-3.516038361,-7.056625671,-2.747087402
-0.762664032,-10.62131287,-2.46297821
0.1336720276,-7.956254883,-1.322050781
0.1212478638,-8.392447815,-1.739382935
-1.94355835,-9.339228973,-0.2507286072
-3.381617889,-7.114555206,-0.08352630615
-5.54267395,-10.98924774,-1.191671906
-3.188070374,-7.080276489,-1.769320679
-1.266216888,-9.173822937,-0.2305206299
-2.116299133,-9.331295471,0.4715194702
-2.684068451,-7.8127034,-0.4643344116
-0.5438191223,-9.498497772,-0.2850073242
-1.31756012,-13.17799622,0.07259902954
-6.462660828,-13.48725311,-0.02724334717
-0.1812730408,-7.020700378,-0.5385800171
1.04961731,-14.24288177,0.3338058472
1.592987366,-8.566386108,0.1969903564
0.4363426208,-9.125623169,-0.7854167175
-1.350491638,-10.12614258,-3.212319946
-0.9165440369,-6.259383545,-3.977977753
-2.351160736,-10.34124527,-2.769391022
-0.4007167053,-4.320465546,1.446891174
2.774480438,-13.91685974,-3.693419495
-1.474733276,-7.243437195,-5.648204498
-3.46230011,-11.4145134,-7.089108124
-1.507515106,-15.74934906,-4.823569336
-3.065325623,-10.10967682,-3.626658325
-2.869532776,-5.916446686,-0.425565033
-5.11680954,-9.191486206,-1.319506073
-2.558479614,-4.576133881,-1.955084381
-0.7923023987,-8.378077698,-0.04430786133
-3.026256866,-9.867181091,-6.369704132
-0.9975256348,-10.57790314,-2.852468262
-2.224973145,-10.61278061,-0.4385879517
-2.595752106,-9.823771362,-0.8855584717
-1.835034027,-10.0873732,-0.7899073792
-4.111051025,-11.95788345,1.168021088
-5.066214752,-11.48441803,-0.5454656982
0.3739224243,-10.66352509,-2.236948242
0.03143463135,-9.322763214,-0.1010398865
1.919608154,-7.318730621,-3.720513153
-1.065184937,-7.989485779,-1.203946381
-4.858596497,-10.11701157,-2.256557465
-1.497485962,-7.370971985,-1.565744019
0.7967930603,-9.646689606,-2.657872925
-0.2884501648,-8.384214935,-1.045575714
-3.219954071,-7.492369537,-7.050338745
-4.015848999,-15.9704393,-6.112239532
-4.033512268,-12.13361801,-4.157753906
-4.790188751,-6.866371307,-0.7719447327
-4.634512482,-3.153791656,-1.840722198
-2.883304138,-6.636599121,-2.215542755
-1.533411255,-7.746391296,-0.6004014587
-1.529219971,-9.845775604,-3.65420105
-3.306025085,-10.68043991,-3.891607361
-3.869154053,-9.171876984,-1.218615875
-5.212460632,-8.556356964,-2.04534668
-2.02424057,-12.32701584,-0.6283932495
-6.144721985,-11.58785294,1.626667328
-0.1263372803,-9.837243347,-4.949906616
-1.0776091,-10.3991748,0.1285826111
0.808768158,-10.41429337,-3.600462799
-0.4001179504,-6.628216553,-0.8994795227
-3.633843384,-8.327782288,-5.722150726
-3.714675293,-7.05797287,-1.038839722
-0.2989283752,-8.376131744,-6.006110229
-0.2987786865,-11.39430542,-6.12421463
-5.09570343,-9.138646088,-4.02153717
-4.895719299,-13.30942291,-2.789149933
-1.328637085,-9.918374634,-1.810036011
-0.6243516541,-4.199517059,0.5469625854
-2.158211975,-8.588689728,-0.863404541
-2.495011597,-11.69383255,-1.233734436
-7.799381104,-8.955726471,-4.78210556
-8.509504395,-17.69515274,-6.673422546
-2.309846649,-15.02769974,0.263152771
-0.2659968567,-9.345964966,0.5292993164
0.3514691162,-8.92773468,1.190773773
0.8035290527,-6.243366852,0.9262738037
1.392254791,-10.73911789,-7.183262329
-1.318158875,-6.425088959,-0.593815155
-3.802093506,-10.88985443,-5.759423218
-0.9526190186,-7.734116821,-1.82889679
-0.8708889771,-9.854008484,-10.95481934
-0.2607577515,-12.43524078,-0.4369413757
-2.701282654,-10.52281769,-5.270539856
-2.869233398,-14.27431641,-3.535048828
-3.169508972,-6.443201294,-0.8580157471
-3.95836853,-7.05917038,-2.132914581
-3.755839691,-5.568570099,-0.6791377258
-2.673739929,-7.907606049,-0.639919281
-6.685996399,-7.739804993,-7.17023941
-2.938539276,-3.559897156,-0.5571414185
-3.256478119,-14.00562515,3.352727966
-5.933211823,-27.85392746,5.665418701
-0.9125024414,-0.8771759033,-17.15253113
1.455872498,-7.946525116,0.5318440247
2.953059082,-11.33936966,2.01376236
-0.08083190918,-7.957901459,0.3147953796
-0.01796264648,-12.44901215,0.8888516235
-1.395997009,-10.33046768,-0.3110531616
-0.1336720276,-9.611961823,-2.632575531
-0.6292913818,-10.32702484,0.3811074829
0.1170565796,-11.67287613,1.951192474
-0.01152603149,-10.63209045,0.4861889648
-0.8650511169,-11.92764633,-7.908204803
1.068777466,-14.23105637,2.75202713
0.8361611938,-10.33181488,-0.5254074097
-3.612886963,-8.091872864,-1.638792114
-7.012916565,-5.326373749,-2.352957001
-4.172872467,-3.295546875,-4.998106384
-1.170416107,-5.432802429,-4.957989807
-6.191125488,-7.804620209,-4.237238617
-2.068398743,-8.50067276,-0.1040336609
0.1553768921,-15.72285416,-0.8761280823
-1.082848206,-7.601193237,-0.2198927307
-4.280798035,-10.41489212,-0.9605525208
-1.510209503,-9.331295471,-0.938997345
-1.849703522,-9.84861969,-3.306025085
-1.11039093,-8.596024475,-1.420545959
-1.344204712,-6.879843292,0.217048645
-1.314266968,-11.19102814,0.8422984314
-1.626218262,-11.70625671,0.1700463867
0.7445516968,-14.49181412,2.237397308
-1.003662872,-13.06587936,3.455564117
-5.494474182,-8.935668182,1.997745667
-7.714208221,-13.58978989,-17.01915848
-9.40868454,-13.40821747,8.672365723
-0.7610174561,-13.80264725,-4.846172333
-1.719773712,-3.811823273,0.5050497437
-2.747087402,-1.27310257,-4.362977142
-3.57456665,-1.716031494,-4.147575073
0.6457571411,-2.750979309,-4.869523773
-4.887935486,-3.875440979,-4.203558655
-8.75454483,-8.351133728,-11.80190781
-8.070467377,-13.76492569,-5.386997681
1.03674408,-4.519701233,-2.609074402
-3.253634033,-12.80766632,-3.917802887
-3.65420105,-8.766370239,-1.798210602
-2.337089996,-10.78492264,-1.798809357
-0.915945282,-9.785301361,-0.7557783508
-0.4189787292,-8.170010376,-2.415377197
-2.906206512,-9.652677155,-2.953358459
-1.655407562,-7.991282043,-1.434167633
-0.05418731689,-9.455237732,-0.0303868103
-1.894161072,-12.8783194,1.622476044
-2.935395813,-13.86536682,2.631976776
-1.012344818,-11.28009293,1.887724457
-2.871778107,-10.04635849,-14.29272812
-8.612639923,-13.22963882,-1.530118103
-4.394262085,-12.17597992,-0.07529342651
-1.322948914,-9.685908051,-4.449197845
-2.546803894,-3.555406494,-1.936822357
-1.417103119,-0.3246748352,-3.560645599
-0.3047662354,-0.7631130981,-3.87065094
-1.311273193,-1.652862854,-6.856791229
-7.70732254,-8.343349915,-5.213807831
-3.414100342,-10.64825684,-1.341959381
-1.77500885,-8.5439328,-4.532125397
-1.635049896,-9.535470886,-5.681585083
-1.468895416,-5.875731354,-2.876867523
-4.223766632,-15.01048553,-0.6102809143
-0.9406439209,-9.84397934,-3.538042603
-2.759960632,-9.239386597,-2.908900909
-2.193688202,-8.706943817,-2.605481873
-1.651365967,-7.720495148,-1.746717682
-0.7789801025,-8.583899689,-0.7586224365
-2.099983063,-12.27073288,1.848356323
-0.4064048767,-15.3865036,2.590213623
-0.9404942322,-10.00624191,0.3864962769
-4.056414642,-11.92210785,-8.531358948
-9.218579865,-9.737101593,-4.452341309
-3.040926361,-13.15329758,5.062622223
-1.584904175,-9.740394745,-3.454665985
-2.440524902,-3.06442749,-3.257076874
-3.567531281,-1.506018219,-3.610042877
-0.8322692871,-1.703906708,-4.071233826
-0.7975415039,-1.315913544,-6.350244598
-3.323239288,-4.952601013,-7.247329102
-6.868766327,-13.25164307,-9.68366272
-2.032922516,-4.990621948,-3.277733917
-0.4788542175,-8.876391449,-5.413642273
-3.075803833,-12.11430817,-3.620970154
-1.057550812,-5.984105988,-2.189496918
-4.858446808,-9.78664856,-2.545157318
-2.379451904,-9.631571045,-1.76333313
-0.8804690552,-9.799072723,-1.636247406
0.6682104492,-10.53748718,-1.933229828
-0.417481842,-8.375982056,-0.6441105652
-0.9210346985,-9.557475128,-2.439327393
-0.4188290405,-8.98746048,-0.7065307617
-1.426683197,-11.05900269,1.950593719
-0.7993377686,-13.60670471,2.279459839
-0.6044430542,-5.961502991,-0.2227368164
-0.1327738953,-14.86932907,1.694925385
-1.151106262,-10.23526566,1.633702698
-3.081641693,-12.95600784,2.535277863
-4.519102478,-13.13084427,-4.875062256
-6.540049896,-9.217681732,-7.800279236
-3.483106842,-11.76029434,5.30990799
-2.344574432,-13.05884399,-3.894152069
-4.132606201,-6.616091766,-1.463506622
-2.708916779,-4.722978516,-2.33200058
-2.507585449,-1.891017609,-3.804787903
0.1263372803,-1.207688599,-3.331771545
-3.261118469,-5.165308685,-7.303013306
-2.541564789,-6.321204987,-6.011199646
-1.80195282,-11.01918549,-14.96063919
-2.777025146,-7.803422699,-4.290976868
-2.070045319,-4.450245667,-8.707991638
-4.391867065,-10.49692154,-4.150419159
-2.48992218,-7.475005646,-3.571572876
-2.412233734,-10.87219116,-2.192490692
-1.213975525,-10.79779587,-2.695295105
-0.4996609497,-9.284742279,-2.381248169
-1.576521606,-10.03602997,-1.521436157
-0.905766449,-9.593699799,-2.283202057
0.2164498901,-8.706195374,-1.904788971
0.2823129272,-9.216484222,-0.9246272278
-1.348246307,-8.815617828,-0.6481521606
-1.92484726,-9.829309845,0.5093907166
-0.7021897888,-10.10668304,0.460891571
0.9216334534,-10.24170227,-0.9136999512
1.342408447,-9.735455017,-0.7680528259
0.3543132019,-10.00130219,1.478625183
-0.6252497864,-13.01513489,1.874402161
-6.063291321,-14.07029068,2.7391539
-11.11992599,-8.162675629,0.4894821167
-1.280137939,-9.523196411,-8.847651215
-1.133592682,-8.701405334,5.995632019
-1.950593719,-7.322772217,-3.138673096
-4.212839355,-2.988684998,1.983225861
2.043400726,-9.172924805,-1.257534943
-1.579515381,-8.683442688,-2.4724086
-1.433868256,-9.609267426,-4.89332428
0.6420149231,-10.15009277,-0.3261717224
0.2630030823,-7.863597565,-0.2650987244
-0.2279759216,-10.1391655,-0.4954696655
-3.458857269,-13.32334396,0.825383606
-5.600603485,-11.90055267,0.6360273743
-0.2267784119,-10.41983185,0.5191204834
0.7658074951,-7.855364685,-0.1948947144
0.3903881836,-11.39370667,0.5773493958
0.2278262329,-7.930658112,0.4281097412
-1.568438416,-6.739135895,-4.205205231
-1.440005493,-8.157286835,-0.2683918762
-1.558858337,-9.978100433,0.8488847351
-1.096619568,-9.175469513,0.6725514221
-3.432512054,-9.279652863,-3.509302368
-4.573289795,-7.6043367,-3.368145905
-2.715203705,-13.34744385,-1.797761536
-2.455344086,-11.44654678,-4.203408966
-6.067781982,-10.76381653,-4.007167053
-5.768703918,-5.985752563,-3.667972412
-3.444936218,-4.514911194,-3.619473267
-1.72231842,-6.255940704,-2.975063324
-2.760709076,-6.399342499,-2.768941956
-2.370171204,-8.598269806,-4.927752686
-1.603615265,-8.608149261,-1.598974915
-4.331093445,-8.247100067,-1.474583588
-4.739444275,-8.248297577,-3.78517868
-5.677543488,-10.61502594,-2.125879211
-1.73294632,-7.934250641,0.2264790344
-0.3451821899,-9.915380859,0.9398954773
-0.7276368713,-13.73109604,1.059496765
-7.710016937,-10.14874557,-1.81482605
-1.825453949,-9.094787292,-2.900218964
-0.5514532471,-18.00276306,0.8021818542
1.480870514,-5.182223511,-0.963097229
0.09160949707,-8.583450623,-3.156036987
-0.732127533,-7.760761414,-1.075513458
-2.915038147,-10.73941727,-4.72133194
-0.1172062683,-7.319029999,-1.656305695
-1.338965607,-10.23496628,-2.374661865
-3.428620148,-7.477101288,-4.997357941
-3.678899689,-7.599546661,-3.882925415
-3.066223755,-15.19550079,-4.469106445
-3.1054422,-8.619824982,-3.797902222
-4.902455292,-8.844956818,-1.876198425
-4.620441742,-5.087470551,-2.361638947
-2.228865051,-5.28880188,-1.663341064
-1.409768372,-8.083639984,-0.4475692749
-2.573149109,-10.65708847,-3.685036926
-4.837939453,-10.89464447,-4.03216507
-5.468128967,-9.185648346,-1.060694275
-1.012943573,-7.96239212,-1.70719986
-2.502496033,-11.67512146,-1.501976624
-6.788383484,-18.5914888,-2.739303589
-0.8710386658,-7.181466064,-0.08397537231
-0.4212240601,-12.68267624,0.8758287048
0.6382727051,-7.227869568,0.4146377563
1.737736359,-12.41712845,-7.923922119
-1.579216003,-7.638465729,-2.431543579
-2.047442322,-10.04022125,-1.856140137
-0.9187893677,-8.412057037,-3.158282318
-1.676663361,-8.172405396,-2.594554596
-0.7062313843,-8.708889771,-3.514092407
-0.0758921814,-9.920470276,-3.454216919
-2.176024933,-6.69991745,-1.85464325
-3.46933548,-8.750203857,-4.896916809
-0.9514215088,-7.432194672,-3.419189758
-3.316353607,-15.62316147,-6.439608765
-6.635102234,-12.16415451,-2.442171478
-7.800578613,-9.869127045,-2.619552612
-2.669249268,-4.942272491,-1.85808609
-3.108286285,-7.796836395,-1.039588165
-2.833308105,-6.995253296,-0.5587879944
-2.892734528,-7.981701965,-4.472998352
-4.464166718,-12.34243378,-5.960305481
-2.900817719,-6.599775696,-0.94543396
-2.534529419,-6.875801697,0.7891589355
-0.5971083069,-11.74861862,0.8449928284
-1.553020477,-6.78763504,-1.542991333
-13.11497726,-15.3068692,-1.18059494
-2.232906647,-11.14013397,-0.7955955505
0.3695814514,-10.40561142,0.2198927307
1.926793213,-11.16573074,-0.3402424622
1.846560059,-6.55711441,-5.769901428
-0.2116598511,-10.22583527,-2.631677399
-1.883682861,-6.659800873,-7.141499176
-1.747466125,-10.39408539,-1.210083618
0.5173242188,-9.033414917,-3.753744049
-0.008232879639,-9.327702942,-3.353626099
-2.033221893,-7.091203766,-3.697161713
-1.621577911,-9.401050415,-4.5984375
-1.285077667,-11.53710846,-1.816921692
-1.134191437,-11.26093277,-2.959495697
-1.782493286,-4.937931519,-2.225122833
-5.374423828,-7.184759216,-0.6765930176
-3.981270905,-4.627626801,-2.231110382
-4.662953339,-8.979976044,-5.418881378
-3.278482361,-10.15054184,-6.448590088
-2.096989288,-10.821297,-1.852846985
-5.886209564,-11.95219528,-5.378764801
-2.611170044,-12.01311859,-13.04821609
-5.2513797,-10.24604324,3.123704224
1.79252243,-11.27156067,-3.33940567
-1.387464752,-8.296946411,-5.052293701
-0.9328601074,-8.66098938,-2.318977661
-0.1172062683,-8.149802399,-4.199816437
-5.278922424,-7.517068176,-3.830983429
-1.870809631,-4.388274536,-1.941313019
0.7083270264,-10.5412294,-8.330476685
-2.888842621,-7.808512115,-0.6167175293
-2.298170929,-18.87529861,-5.75208847
-0.1577719116,-15.94035187,-3.167862396
-0.7390132141,-9.873468018,0.9601034546
-0.7283853149,-5.801785126,-0.1002914429
-2.506387939,-6.526128845,0.3430865479
-6.647526398,-8.517886963,0.05523513794
-7.660619659,-7.777077484,-3.901636505
-2.889291687,-10.18227585,-7.480095062
-3.23297699,-13.93362488,-0.1721420288
0.903072052,-5.056634674,1.887574768
2.803669739,-14.08271484,-0.6122268677
3.237467651,-8.686436462,0.4315525818
2.139051819,-10.44587769,1.909129944
0.9045689392,-9.524992676,0.8210426331
0.126486969,-10.76396622,1.255139923
-1.203946381,-8.713230743,0.9255253601
-1.775457916,-8.529263306,1.033899994
-2.921624451,-13.13009583,2.33319809
-4.163891144,-12.06730591,-19.92416748
-1.480870514,-12.61232254,-1.062939606
-2.383343811,-13.36375992,1.786834259
2.443518677,-11.19432129,-4.365821228
0.6017486572,-11.37275024,-1.643731842
-5.715414734,-6.258635101,0.3249742126
-2.98958313,-3.690575409,-5.538183289
-2.15881073,-5.603148193,-3.97243927
-3.580105133,-14.1987236,0.1957928467
-9.861043854,2.118694153,-13.86087616
-2.47824646,-15.029496,1.901645508
2.402354279,-9.345216522,0.2116598511
1.111438751,-11.79262711,-0.6885681152
-3.104544067,-12.20262451,-1.118324432
-2.034120026,-7.847880249,-0.9671388245
-0.7926017761,-8.696465607,-1.841021576
-0.2083666992,-9.335187378,-0.9581575012
-1.501078491,-8.998238068,0.200433197
-1.297352142,-9.611961823,-0.1757345581
-0.4842430115,-9.883646851,-0.6402186584
-0.7476951599,-11.67931274,1.522034912
0.1312770081,-16.49090698,3.219055939
-0.7872129822,-12.11011688,2.600542145
-5.460494843,-10.14350647,-8.315956879
-5.051844635,-10.61248123,-3.913312225
-5.353916473,-12.08107727,3.296894073
-1.168320465,-11.51824768,-4.524491272
-2.689606934,-5.373675385,-0.1989363098
-2.988086243,-2.510429535,-3.239712982
-1.345701599,-0.6722520447,-3.258873138
-0.6828799438,-3.035537567,-4.295467529
-3.535797272,-2.307152252,-4.929998016
-3.295097809,-23.5734288,-5.520070953
-2.341430969,-2.85261795,-2.289788361
-5.084476776,-4.651277618,-8.146658936
-2.175276489,-11.83738403,-1.609303436
-1.476379852,-9.961185608,-2.721790009
-1.955084381,-10.21116577,-1.174607391
-2.064955902,-10.48225204,-2.793640594
-0.6502478027,-8.77684845,-2.330952759
-0.5279521179,-8.182135162,-1.243015137
-2.251917114,-8.572822723,-2.445165253
-1.148561554,-8.560997314,-1.316063232
-1.408121796,-9.861941986,0.2273771667
-1.23448288,-11.52618118,1.658101959
-0.02050735474,-15.73198517,2.197729797
0.9677375793,-11.32709518,1.059197388
0.4572990417,-8.810378723,-7.309599609
-2.998265076,-11.15061218,-2.934946747
-7.75881546,-12.37207214,0.7719447327
-0.2874023438,-13.90608215,-2.132016449
-4.367467804,-7.216493225,-3.137924652
-3.454516296,-4.800068207,-4.484823761
-0.7987390137,-2.913391571,-2.891986084
-2.417472839,-1.156944122,-4.529281311
-1.869013367,-2.89123764,-5.515879669
-3.094814301,-3.950734406,-3.619622955
-5.844147034,-15.53454575,-13.8457576
-4.22990387,-7.960296478,-2.9077034
-2.271226959,-1.21098175,-3.88472168
-5.863157501,-16.15305954,-2.350412292
-1.658251648,-6.108048248,-3.22713913
-2.9767099,-11.27200974,-1.247805176
-0.6994953918,-8.813971252,-2.074236603
-0.7503895569,-11.46615601,-1.328487396
-1.121617584,-9.324858856,-1.779948578
-1.099014587,-9.998458099,-0.7276368713
-1.408271484,-8.16716629,-0.9512718201
-2.545157318,-7.973918152,-0.6197113037
-1.529818726,-9.922865295,0.1047821045
-1.601519623,-11.74637329,1.42982666
-0.5978567505,-14.77158234,2.704725494
-0.7670050049,-10.97981735,2.11899353
-2.735561371,-9.232051849,-5.333109741
-4.788242798,-10.97023727,-4.406237183
-6.910978546,-11.26931534,1.989662476
-0.1261875916,-13.6930751,-4.327800293
-2.465822296,-7.959398346,-2.436333618
-3.151246948,-3.991300049,-3.556005249
-2.921325073,-2.834655304,-2.748733978
-2.225422211,-2.474204865,-3.996688843
-2.086810455,-4.100423126,-5.910908203
-6.349196777,-4.034260712,-9.250313873
-4.882696381,-13.9041362,-10.22373962
-0.8396040344,-6.708749084,-4.023333435
-2.124232635,-9.697434082,-3.316652985
-3.596720581,-10.37297928,-2.506837006
-2.399959259,-8.702902222,-2.201172638
-1.88383255,-10.01806732,-1.908680878
-0.5469625854,-9.417366486,-2.140698395
-1.071172485,-10.13632141,-1.277593231
-0.4996609497,-9.016350403,-1.105002136
-0.4984634399,-8.717422028,-0.7725434875
-2.265688477,-9.542506256,-0.2941383362
-1.784888306,-9.292226715,-0.2583627319
-1.695524139,-12.16639984,1.168021088
-0.7194039917,-12.78970367,1.88967041
0.1083746338,-10.93970078,2.139949951
0.01811233521,-10.81635727,1.517095184
-2.216889954,-9.949958954,-1.360969849
-3.926035767,-10.3355571,-4.572990417
-4.400249634,-9.976603546,1.117575989
-0.7412585449,-8.928034058,-0.3041674805
-1.083596649,-9.22022644,-6.682254181
-4.321812744,-5.777984619,-2.742147675
-2.790796509,-5.874833221,-5.517975311
-2.336341553,-4.327949982,-4.380490723
-4.201463013,-6.331234131,-5.491031342
-3.763174438,-2.504591675,-3.963607635
-4.180356903,-5.829926605,-5.709277496
-4.059857483,-7.196434937,-6.043981476
-5.394781494,-8.024812317,-6.702462158
-7.166946259,-4.331392822,-5.163213043
-2.390379181,-12.01326828,-10.05054977
-1.93293045,-8.365204468,-2.819237366
-1.486708374,-5.811963959,-4.270020447
-3.294199677,-11.77661041,-1.755699005
-1.250948639,-10.1869162,-2.594554596
-0.5858816528,-10.0355809,-1.496438141
-0.2242337036,-9.034163361,-0.4522096252
0.2448907471,-8.396938477,-0.233664093
-0.6047424316,-10.52820648,0.2097138977
-1.196911011,-8.937464447,-0.4343966675
-2.33783844,-9.630373535,-0.06586303711
-0.126486969,-9.499844971,1.126257935
-0.3529660034,-9.652228088,0.3257226563
-1.533710632,-10.936707,0.05313949585
-0.2462379456,-10.6434668,1.254690857
-0.3420387268,-11.99740128,1.337618408
-0.8485853577,-9.535770264,1.768871613
-0.7605683899,-10.56023987,2.111808472
-0.03442840576,-11.50312912,1.458716583
0.2757266235,-11.18414246,1.211730194
-0.2209405518,-9.249415741,-9.267378387
0.2025288391,-9.560319214,-0.7831713867
0.2200424194,-10.58568695,1.956281891
1.668131104,-9.977651367,-2.903961182
2.114802246,-11.1344458,-0.279768219
0.04595443726,-9.870923309,-4.167783051
-1.795067139,-5.849835205,-1.445843353
-1.204694824,-7.476502533,-4.711302795
-1.056502991,-7.574548645,-5.0629216
-0.9822573853,-4.265380096,-3.079246674
-3.154689789,-3.488795013,-2.912044373
-2.009571075,-1.452279968,-1.948947144
0.0419128418,-5.731281738,-1.834285583
-1.364861755,-16.19572083,-5.819298706
-2.266885986,-11.17126923,-3.485352173
-1.765129395,-9.258546753,0.5071453857
0.5754034424,-11.98288147,-5.738915863
-0.8852590942,-8.702902222,-0.7346722412
0.1225950623,-8.350085907,-0.6143225098
-1.99505127,-16.99071762,-5.603447571
-1.590442657,-9.535620575,2.430495758
1.082698517,-7.54236557,5.220543823
1.038690033,-12.81500107,1.665436707
-0.04206253052,-9.746382294,-1.19466568
-2.063309326,-9.141041107,-0.9785151672
0.1019380188,-9.296567688,-5.652844849
0.7794291687,-7.276219025,-0.9831555176
1.075962524,-9.967472534,-0.0007484436035
-0.6021977234,-9.724976807,-1.610650635
-2.618953857,-6.559808807,-3.146456909
-3.679498444,-7.707172852,-3.754193115
-0.5566923523,-15.16900589,-5.491929474
-4.8850914,-15.21076904,-6.7841922
-3.440894623,-5.683680725,-1.721270599
-5.886508942,-6.444249115,-2.415975952
-2.456541595,-4.89092926,-1.557511139
-0.1995350647,-4.996759186,-0.3179388428
0.3516188049,-10.39243881,-4.292623444
-2.780767365,-9.969568176,-3.914809113
-3.004402313,-9.97151413,-0.2966830444
-5.787415009,-7.499853973,-1.804647217
-1.433718567,-14.93848526,-3.218457184
-4.823868713,-11.95204559,-0.6304888916
-3.331921234,-9.660311279,-0.3637435913
0.9342073059,-14.16204987,-0.9616003418
3.184777222,-8.19875061,-2.875370636
0.966839447,-6.135590973,0.6414161682
0.1811233521,-9.931547241,-0.3763174438
-1.965861969,-7.335645447,-4.186943207
-5.490432587,-9.573042755,-2.444416809
-1.680106201,-6.333329773,-1.341809692
-0.4505630493,-9.36183197,-3.015179901
-2.216291199,-9.083560638,-6.61684021
-3.162922668,-14.20830368,-2.408341827
-2.439926147,-9.372459869,-2.149230652
-2.772534485,-10.52730835,-0.7888595581
-4.60427536,-5.224884796,-0.8792715454
-5.728437653,-6.812034302,-3.596570892
-1.55736145,-7.724836121,-0.2679428101
-0.8834628296,-8.6036586,-0.4462220764
-3.600762177,-9.670639801,-4.351151733
-2.85740799,-9.008566589,-1.932182007
-2.725382538,-9.398356018,0.329614563
-3.669768677,-11.05660767,-0.4068539429
-5.461542664,-15.94110031,-4.136049042
-1.016236725,-5.741759949,0.09490264893
0.01975891113,-13.92494293,1.020877075
1.641935577,-6.125262451,-3.858675842
-0.6725514221,-9.025182037,-3.516487427
-0.1981878662,-10.08722351,-1.715881805
-1.192719727,-9.046437836,-2.528092804
-2.758613434,-8.239915009,-2.340383148
-1.281934204,-9.093739471,-2.008972321
-0.3155438232,-9.046737213,-2.645149384
-2.184407501,-5.873935089,-2.866389313
-1.177750854,-8.491691437,-6.177204437
-3.257226563,-10.26714935,-4.374802551
-3.233276367,-17.36299347,-6.570885773
-3.074756012,-7.88994278,-2.405946808
-4.482428741,-3.427871704,-2.244582367
-5.41977951,-5.731581116,-1.73519165
-1.594633942,-6.766379242,-2.043700104
0.009729766846,-9.71524704,-3.421734467
-2.667453003,-8.027207336,-3.242856445
-3.602259064,-7.285350037,-0.7550299072
-3.424728241,-10.82189575,-1.022074585
-7.81614624,-21.3120813,-11.61913788
-1.493893433,-9.199419708,0.3718267822
0.3336561584,-13.49249222,1.313069458
1.409618683,-6.987469482,-0.4788542175
-0.6349795532,-8.033643951,-6.608158264
-1.021026764,-7.647596741,-2.448458405
-2.209854584,-8.620423737,-3.128344574
-1.438957672,-8.016579437,-0.6132746887
-1.013542328,-9.602830811,-7.747888184
-0.5111869812,-8.185128937,-5.693260803
-4.818330231,-15.21900192,-5.369783478
-2.356100464,-9.369915161,-3.408711548
-9.9878302,-11.78798676,-3.788471832
-4.462370453,-7.189698944,-2.523751831
-2.314636688,-5.836512909,-0.4454736328
-1.108444977,-6.259832611,-0.8132588196
-0.6421646118,-7.956254883,-1.501078491
-3.602558441,-10.7774382,-3.089874573
-5.744454346,-10.0527951,-2.516716461
-4.092040558,-7.107819214,-0.1591191101
-1.220561829,-8.544980621,0.06885681152
-2.066901855,-7.794890442,0.1246907043
-10.03842499,-15.16825745,2.317181396
-1.159638519,-9.729467468,0.3275189209
1.564097443,-15.22558823,-4.353397064
0.4878355408,-4.278552704,-0.578846283
-0.1445993042,-12.22298218,2.208357697
1.627266083,-7.847281494,-1.785337372
0.2177970886,-7.708669739,-1.950444031
-0.4020639038,-9.989476776,-0.5628295898
-0.6406677246,-6.236930237,-1.866768036
-1.750759277,-11.64353714,-2.761756897
-0.722996521,-13.16617081,-2.711311798
-1.481768646,-13.74935806,-0.1923500061
0.6813830566,-13.46165634,-2.627037048
1.465751953,-4.752467194,0.7554789734
0.4327500916,-6.730453949,0.6126759338
-2.11315567,-10.98969681,2.64440094
-3.709885254,-9.757459259,0.6045927429
-12.36249207,-8.833281097,-1.519490204
-5.334906006,-7.392676849,-1.847009125
1.153201904,-17.27737152,1.46141098
2.326013031,-5.423970795,-0.480201416
2.360142059,-11.80370407,-0.7137158203
0.6240522766,-8.973838806,1.587448883
-1.147064667,-10.19724472,3.719315643
-1.415905609,-10.32792297,2.873574371
-0.2462379456,-9.245523834,-0.9436376953
2.639461212,-9.647138672,-4.123774567
1.195114746,-10.33480865,1.328936462
1.64627655,-13.51404739,3.54657486
-0.1933978271,-13.48006805,4.677922211
-2.974165192,-11.38592285,0.3481759644
-1.225651245,-12.05054077,-5.153632965
-5.146597595,-16.94476318,2.714305573
-6.058351593,-10.1179097,-3.330424347
-1.913171539,-6.229745178,0.3222798157
0.4652325439,-1.444047089,-1.252295837
-1.459764404,0.6477030945,-2.56012619
-1.042731628,-2.516267395,-4.436025238
-4.514761505,-15.70489151,-11.23309067
-0.01811233521,-12.37566467,-0.6042933655
-4.38318512,-4.876409454,-5.393733673
-5.575904846,-11.27066254,-1.885928192
-0.8255332947,-8.919651489,-3.078348541
-0.6054908752,-10.71471863,-1.555116119
-0.219743042,-9.653575287,-1.802102509
-0.4460723877,-10.03992188,-1.895657959
-0.2318678284,-8.72415802,-2.214644623
-0.7884104919,-9.379644928,-1.444496155
-1.663490753,-9.110803986,0.07244934082
-1.062789917,-9.111103363,0.482895813
-1.802551575,-10.28316605,0.1166075134
-1.329086151,-12.99417847,1.38536911
0.4272116089,-16.0672879,2.808310089
-0.7226971436,-10.19514908,2.471360779
-4.412524109,-10.18392242,-12.15741852
-7.197782135,-9.7210849,-0.007334747314
-0.6598278809,-14.5412114,0.4436773682
-0.3240760803,-7.630831604,-4.437821503
-5.047653351,-2.398911438,-3.44358902
-2.930755463,-2.400108948,-3.132984924
1.378483429,-0.5864804077,-2.84094223
-2.912493439,-2.11899353,-5.375621338
-9.00497406,-10.61861847,-8.07705368
-1.795366516,-9.939780121,-2.638263702
-1.366358643,-4.053271179,-2.772983551
-4.36327652,-12.13915649,-3.608695679
-3.394640808,-9.806706848,-2.75442215
-1.910028076,-9.377249908,-1.339115295
-0.2803669739,-11.36152359,-2.540367279
-0.2498304749,-9.242380371,-2.388732605
-1.086291046,-8.74990448,-1.539249115
-2.437381439,-7.648195496,-2.697839813
-1.318907318,-7.845784607,-0.9487271118
-1.25663681,-10.59766205,1.055155792
-1.568737793,-12.29109055,1.588496704
-0.3513194275,-15.94454315,2.596799927
-0.2487826538,-12.82547928,1.949994965
-2.480940857,-7.851023712,-4.564158783
-5.489684143,-10.26729904,-5.204227753
-4.046385498,-10.34453842,0.2284249878
-2.549498291,-12.83505936,-0.8649014282
-1.414259033,-7.899672546,-3.013383636
-3.583248596,-5.388344879,-3.62605957
-3.20019516,-4.236041107,-3.079845428
-1.950893097,-1.805695038,-4.622238007
-0.6472540283,-2.144889679,-5.846841431
-6.504723358,-10.3593576,-11.44400208
-0.3538641357,-12.65872604,-0.5381309509
-4.263583832,-3.950584717,-2.962938538
-6.755302277,-13.01693115,-1.93532547
-1.630559235,-7.764952698,-1.613045654
-0.4022135925,-11.15016312,-1.000070343
0.4102967834,-9.516909485,-1.753004608
-0.3463796997,-7.668852539,-1.61828476
-0.5072950745,-8.448431396,-1.161285095
-1.206640778,-9.379195862,-0.8746311951
-3.287463684,-8.729397125,-1.172960815
-0.8265811157,-10.97936829,0.5084925842
-0.6764433289,-10.95586716,1.474882965
-2.180964661,-12.27881607,1.59717865
-0.1905537415,-13.90997406,0.4528083801
0.3110531616,-9.568252716,-0.4881349182
0.7890092468,-9.971065063,-2.493065643
-1.642534332,-9.522447968,-2.000140686
-8.639434204,-12.12703171,1.673669586
-2.225571899,-10.3500769,-4.074077911
-2.160157928,-7.573800201,-2.59754837
-3.792962494,-5.156477051,-4.341871033
-1.839674377,-2.253114624,-4.439468079
-3.542233887,-2.467917938,-5.322032776
-2.517913971,-2.491419067,-4.951403503
-4.922812958,-2.521955566,-7.721243591
-6.168522491,-16.15844833,-11.69158722
-1.570833435,-6.684200134,-3.629502411
-2.817890167,-8.303383026,-4.596940613
-3.983366547,-16.00471802,-2.282004547
-1.440753937,-9.220675507,-2.394570465
-0.843046875,-9.739496613,-2.084864502
-0.8943901062,-8.972042542,-2.328557739
0.2989283752,-7.863148499,-1.300944672
-0.07963439941,-8.185578003,-0.9273216248
-1.832489319,-9.438622284,-0.7232958984
-2.481988678,-9.698781281,0.4686753845
-0.0730480957,-10.44647644,1.183738403
0.02439926147,-9.704319763,1.415157166
-0.2061213684,-10.50066376,1.068927155
-0.3197351074,-12.29543152,0.8391549683
0.0477507019,-11.74083481,0.9895921326
-0.7607180786,-12.19094879,1.747615814
-0.3775149536,-10.63583267,1.293160858
1.159638519,-11.58755356,-4.797822876
-0.1972897339,-10.69001999,-3.595822449
-1.846260681,-14.15980453,3.039429474
1.474882965,-12.02314774,-2.101030884
-0.8003855896,-7.284152527,-1.763183441
-1.629062347,-5.992488556,-2.702180786
-3.505410461,-5.837411041,-3.789968719
-1.878892822,-6.178401947,-4.000131683
-2.167642365,-5.322182465,-4.186494141
-3.252137146,-5.377267914,-5.177283783
-2.211351471,-6.76892395,-7.330855408
-4.518503723,-10.84449875,-9.032965851
-0.6468049622,-11.98707275,-5.311255188
1.024469604,-8.303383026,-4.49081131
-0.3423381042,-7.351961517,-3.066223755
-1.478475494,-10.78162949,-1.614991608
-2.900368652,-8.785081329,-1.560654602
-2.407144318,-9.565109253,-1.086141357
0.2671943665,-9.33967804,-3.33596283
-0.2525248718,-10.03333557,-0.7496411133
-0.2276765442,-7.640112305,-0.1480421448
-1.126108246,-10.99403778,-0.6035449219
-1.806293793,-10.93251572,-2.380499725
-2.821931763,-7.827223206,-3.632945251
-1.32459549,-10.98191299,1.481768646
-0.06915618896,-13.9000946,-2.77193573
-3.83083374,-7.286996613,-2.731220398
-8.597221985,-6.568191376,0.003891906738
0.09175918579,-7.06261322,-1.924398193
-0.5522016907,-5.755381622,-1.667532349
-3.557502136,-9.201365662,-1.342408447
-5.776487732,-8.917705536,-2.431992645
-6.660998383,-8.964707794,-5.324876862
-3.431314545,-7.783214722,0.07185058594
-0.09924362183,-9.812245331,0.2246827698
-0.1758842468,-9.78889389,-0.366587677
-6.388864288,-8.223598938,-0.4218228149
-4.376299438,-5.585484924,-1.225501556
-7.277416534,-21.83419556,-5.37651947
-0.06646179199,-6.599626007,0.4339476013
0.6979985046,-15.16406616,0.9758207703
2.20446579,-8.043373718,2.040406952
0.512384491,-10.47865952,-8.033943329
0.1761836243,-6.181096344,-2.063009949
-1.407373352,-8.602910156,-2.055076447
-1.097817078,-9.557026062,-2.260000305
-0.9428892517,-9.212891693,-4.209396515
-1.035696259,-7.285948792,-1.077010345
-2.882705383,-7.885302429,-1.719174957
-1.96571228,-9.004524994,-4.729714508
-1.898651733,-8.00804718,-4.879403229
-4.740791473,-16.73684555,-5.81765213
-4.884792023,-12.03676941,-4.628225555
-3.73144043,-5.979016571,-1.914369049
-5.667514343,-6.50921402,-1.811981964
-2.767894135,-5.316194916,-1.619033203
-0.9701325989,-5.390290833,-0.8631051636
-0.5783972168,-7.856861572,-3.537743225
-2.443967743,-10.36669235,-3.148253174
-4.434079285,-9.472002869,-1.93412796
-3.047662354,-11.43532013,-0.6583309937
-3.454216919,-9.215885468,-2.146236877
-3.582500153,-16.38822052,-4.23574173
-1.605561218,-6.185437317,0.3697311401
-0.5674699402,-12.64031433,0.7622149658
1.733844452,-11.62243103,-1.49419281
-0.5803431702,-7.830366669,-1.134191437
-2.263592834,-8.83762207,-4.378245392
-2.245480499,-6.73030426,-3.513643341
-2.498304749,-8.225544891,-1.203497314
-2.399510193,-6.94331131,-2.069147186
-0.86235672,-8.810528412,-3.498225403
-1.603465576,-7.295229492,-4.430187378
-5.031936035,-19.6797258,-5.722450104
-4.373904419,-11.06768463,-3.324137421
-3.519181824,-8.161777496,-1.436113586
-4.969815216,-3.489992523,-1.074016571
-2.600242767,-4.855153656,-1.306632843
-0.5292993164,-8.510701904,0.2526745605
-2.224973145,-9.573940887,-6.098019104
-2.545007629,-8.231981506,-2.05118454
-4.699627075,-10.08647507,-0.9039701843
-4.276007996,-9.364526367,-2.151176605
-2.840044098,-22.58593231,-10.47970734
-1.311871948,-5.912554779,0.07843688965
-0.3522175598,-13.81552048,0.5986051941
1.024319916,-9.289682007,1.655257874
0.9321116638,-8.937913513,-10.55889267
-0.6598278809,-8.597970428,-1.359023895
-2.305355988,-9.527387695,-2.347568207
-1.97155014,-7.616611176,-3.067271576
-1.029858398,-9.732311554,-2.409689026
-1.661993866,-8.174800415,-3.113076324
-0.6643185425,-7.804919586,-2.930156708
-1.400936737,-8.571625214,-3.388204193
-3.508553925,-8.070617065,-5.21620285
-2.838547211,-16.18703888,-3.203787689
-4.537963257,-11.06558899,-2.72508316
-6.500532074,-4.985532532,-2.433190155
-6.28572876,-5.617069244,-1.774260406
-3.490890656,-5.787864075,-2.261347504
-1.253643036,-7.885601807,-0.1760339355
1.00276474,-8.441246338,-5.590424652
-2.86085083,-9.708511047,-4.196972351
-5.420527954,-8.97338974,-1.294807434
-3.702999573,-8.367150421,-1.523831177
-5.350323944,-20.248992,-8.757837982
-1.512454834,-7.356152802,-0.1294807434
-0.1959425354,-15.29639099,-1.125210114
0.07813751221,-7.526348877,-1.419947205
0.1778302002,-9.186696167,-7.203769684
-2.157014465,-7.00767746,-2.670746155
-3.657045135,-8.107440491,-3.116070099
-2.224973145,-8.391250305,-2.807861023
-0.3959266663,-10.49752029,-2.961291962
-1.270857239,-6.467001801,-3.535198517
-3.748205566,-7.20661377,-7.637268219
-3.530558167,-12.04320602,-3.065625
-1.460363159,-13.24700272,-3.827540588
-5.169799347,-8.524622955,-4.167483673
-2.811603241,-3.241209869,-3.179538116
-5.483696594,-9.331295471,-2.26523941
-1.652563477,-5.177134094,-1.622775421
0.336051178,-9.152866516,-1.568588104
-1.820214844,-11.53875504,-5.311853943
-3.861220551,-9.5631633,-3.859274597
-7.874524841,-11.2034523,1.204096069
-0.8402027893,-16.08465179,-7.836204529
-1.835333405,-7.395221558,-0.2513273621
-1.189426575,-12.09110641,0.5248086548
0.6471043396,-10.84689377,1.22864502
1.763482819,-7.519463196,-8.121361542
-1.019978943,-8.473878479,-2.799777832
-1.484313354,-8.832682343,-1.805096283
-0.7506889343,-7.894283752,-3.650608521
-0.2116598511,-8.387807465,-0.9195378113
-1.487307129,-11.3534404,-0.4493655396
-3.487597504,-14.97351242,-0.5044509888
-0.2362088013,-14.8543602,-3.214565277
0.7705975342,-10.56847275,1.41934845
2.634970551,-6.580465851,-0.2628533936
0.5905220032,-10.07464966,1.502276001
-2.014361115,-10.03498215,-0.3260220337
-4.925657043,-8.71367981,-0.5613327026
-2.181862793,-6.974147186,-2.799927521
1.42518631,-11.08459946,-0.9958790588
-0.07843688965,-10.73881851,1.611698456
-3.00245636,-12.54466324,2.33319809
-2.577939148,-4.639152832,1.74222702
-1.813029785,-14.03107224,0.7887098694
-0.7538323975,-10.72639435,-1.134790192
-0.265847168,-9.038504333,0.426612854
-2.263742523,-10.43045975,2.430944824
-1.719624023,-8.973689117,1.555116119
-0.2342628479,-10.13826736,-1.291364594
0.1682501221,-9.294322357,-2.937790833
-0.3210823059,-10.13961456,0.9277706909
-0.4532574463,-9.888287201,1.439107361
1.014889526,-15.73617645,2.238295441
-0.8580157471,-12.75422745,1.788480835
-6.446793823,-10.73507629,-5.244494019
-3.303929443,-9.052425385,-4.311484222
-3.787124634,-13.53215973,2.149230652
-1.270108795,-7.46048584,-4.150868225
-2.60458374,-3.842659149,-1.375639343
-2.434088287,-3.411106567,-3.763922882
-2.673141174,-2.840343475,-5.436694336
-2.290087738,-3.686683502,-4.960983582
-5.43385025,-5.829477539,-7.139702911
-6.684349823,-11.85414917,-7.995623016
-2.16704361,-9.530531158,-3.253783722
-2.359992371,-8.941506042,-4.162394257
-4.365821228,-11.40508301,-2.76729538
-2.2839505,-9.840686188,-1.54104538
-1.281036072,-9.816586304,-0.7807763672
-0.2055226135,-8.887767792,-1.911075897
0.3597019958,-7.789651337,-1.210832062
-0.1101708984,-9.096433868,-1.067430267
-2.198478241,-9.903405762,-1.050964508
-2.361788635,-8.513246613,-0.1722917175
-1.718725891,-11.75251053,1.168320465
-0.8095166016,-15.90457626,2.155667267
-0.002694396973,-10.40351578,0.7312294006
-2.562221832,-10.71950867,-5.808072052
-6.709497528,-12.33659592,-3.536845093
-3.096311188,-12.8118576,2.079924774
0.03652404785,-6.022126923,-4.03680542
-3.262765045,-2.832859039,-1.353335724
-2.859204254,-0.8952882385,-3.515140228
-1.063837738,-2.300865326,-4.131259003
-4.654421082,-3.158132629,-3.68339035
-1.178199921,-19.76474899,-3.790417786
-3.245999908,-6.712640991,-2.942431183
-4.410129089,-9.859397278,-3.490142212
-4.147275696,-12.95286438,-2.553390198
-1.255738678,-9.869576111,-2.448458405
0.5153782654,-9.386231232,-2.316133575
0.06661148071,-8.435857544,-1.795516205
-1.217118988,-7.519912262,-2.11899353
-2.010618896,-8.782386932,-1.746118927
-1.008003845,-9.824370117,-0.3698808289
-1.734443207,-12.89029449,1.599423981
-1.613345032,-15.31150955,2.882106628
-0.2415975952,-8.833131409,1.696272583
-4.252207489,-10.80498093,-13.99754196
-5.897585907,-11.23698257,1.259929962
-0.6047424316,-12.58313324,0.9997709656
-3.213517456,-7.816295929,-2.524500275
-3.818559265,-4.800367584,-4.372407532
-2.361339569,-4.02857254,-2.935246124
-0.9880952454,-1.343007202,-4.242926788
-1.596729584,-2.831960907,-5.297932892
-4.746329956,-2.662812653,-5.654940491
-2.609224091,-19.84318588,-10.59616516
-2.519859924,-8.776100006,-2.180964661
-3.605252838,-1.870510254,-5.768853607
-3.767515411,-11.82376236,-1.99145874
-1.240470428,-8.290509796,-2.300715637
-0.7707472229,-9.055718536,-1.91661438
-1.59837616,-11.62063477,-2.303559723
-0.9795629883,-8.788973236,-1.214723969
-1.161734161,-8.820258179,-1.192120972
-1.206790466,-8.578361206,-1.274749146
-1.056952057,-8.419840851,-0.1324745178
-2.228116608,-10.61846878,0.6719526672
-0.8147557068,-13.03339691,1.388512573
0.3315605164,-15.98331253,2.888543243
-0.7565267944,-9.084608459,2.020348663
-3.207978973,-10.68627777,-5.026996307
-5.264701996,-10.80408279,-5.354515228
-5.557343445,-11.70580765,1.748663635
0.429307251,-14.08915146,-3.222199402
-3.207380219,-6.569239197,-2.002386017
-2.931503906,-4.164789276,-4.371808777
-1.920805664,-2.776875458,-3.734434204
-2.323618011,-2.888543243,-5.289400635
-1.998194733,-4.503534851,-5.095553741
-6.301895142,-6.599626007,-5.995332642
-4.184398499,-13.98871033,-6.976242828
-1.920955353,-6.953939209,-3.233426056
-1.655856628,-9.90834549,-3.911965027
-3.332070923,-12.90690994,-2.470612335
-1.334175568,-8.1882724,-1.582060089
-0.8755293274,-9.814340973,-1.646725616
-0.7557783508,-8.563242645,-2.808310089
-1.21457428,-9.242380371,-1.874252472
-1.156345367,-8.691675568,-1.394649811
-0.9913883972,-10.41144928,-0.3146456909
-1.052910461,-9.339827728,0.12753479
-1.230291595,-9.721384277,0.4646337891
-0.7427554321,-11.07232498,1.044976959
-0.6098318481,-11.97614548,1.393452301
0.2383044434,-11.61569504,1.724414063
0.2418969727,-10.14994308,0.9395960999
0.2715353394,-8.790320435,0.2624043274
-0.6764433289,-9.3747052,-0.5740562439
-1.053808594,-12.0833226,-1.65570694
-1.599423981,-13.0561496,-1.155596924
-0.7102729797,-12.68537064,-0.6933581543
1.80779068,-12.48134491,-1.679208069
-0.832868042,-7.631879425,-2.392474823
-1.664688263,-6.23887619,-2.199675751
-0.4170327759,-6.751859436,-3.084036713
-2.947819977,-5.211712189,-3.210224304
-1.053209839,-6.033952332,-3.277733917
-2.605182495,-4.971162415,-2.97551239
-9.360933838,-13.74771149,-8.145311737
-1.391656036,-10.00160156,-1.79371994
0.8976832581,-6.309379578,-3.134930878
-1.821711731,-11.02786743,-2.550546112
0.3751199341,-8.369096375,-2.582130432
0.14040802,-9.930050354,-2.407144318
-1.705403595,-9.077124023,-0.7301815796
-1.588197327,-9.170380096,-1.418450317
-0.1408570862,-10.65648972,-1.619482269
0.3742218018,-9.020391998,-1.197958832
-0.1413061523,-8.976383514,0.4620890808
-0.3115022278,-9.741292877,0.6550378418
-0.5469625854,-9.214089203,0.6321354675
-1.910926208,-8.959019623,-3.393443298
-1.456620941,-9.429790649,0.277073822
-2.525847473,-7.494764557,-0.4863386536
-3.28791275,-8.001311188,-0.8571176147
-3.409010925,-8.482710114,-1.733694763
-1.754052429,-10.68493057,-2.953208771
-1.360071716,-9.543554077,-2.637066193
-2.742447052,-9.809101868,-4.456233215
-3.188070374,-7.987090759,-4.173471222
-3.630400543,-9.520502014,-5.768254852
-2.975961456,-11.81508041,-6.961872711
-2.533331909,-10.82309326,-4.686903534
-5.943240967,-9.056916046,-2.246827698
-5.397326202,-4.06719223,-3.171454926
-4.581672363,-3.529210968,-1.440903625
-4.80665451,-6.681505737,-4.506678314
-4.059258728,-5.499713287,-1.257684631
-2.824177094,-8.007897491,-1.418001251
-4.689298553,-6.557264099,-4.285737762
-4.143533478,-6.081253967,-2.251168671
-3.61438385,-10.90961334,-0.9699829102
-2.576591949,-10.53434372,-4.555626526
-1.002315674,-7.163802795,-0.6441105652
-2.652334442,-15.36479874,-0.9665400696
-4.39486084,-14.65722015,0.8119116211
0.2555186462,-12.4496109,-3.270698547
0.3544628906,-7.473059692,-0.3020718384
-0.5379812622,-7.540120239,-0.3010240173
-1.098565521,-8.524173889,-1.034648438
-3.039728851,-6.702462158,-2.772684174
-2.9767099,-7.549101563,-0.1660047913
-1.952090607,-7.504494324,-0.2195933533
-0.6469546509,-11.01978424,-2.098037109
-3.047662354,-10.86979614,-6.662046204
-6.116879883,-17.02559509,-2.821183319
-2.539768524,-6.963818665,-4.936135254
-1.50242569,-6.231541443,-0.6909631348
-4.898862762,-5.455106049,-2.14009964
-2.291734314,-4.827610931,-1.341959381
-1.030606842,-7.013665009,0.2510279846
1.264720001,-10.60484711,-3.253933411
-4.505331116,-10.95092743,-6.729705505
-7.203320618,-8.591833191,-1.825903015
-4.073479156,-12.85451889,0.4784051514
-3.904181213,-12.80721725,-0.7171586609
-0.6004014587,-9.418863373,-0.676892395
0.7521858215,-13.67496277,-0.7292834473
-0.0643661499,-6.411018219,-0.3662882996
-1.177900543,-10.34498749,-4.860392761
-1.912273407,-5.172344055,-1.464853821
-4.467609558,-9.781858521,-2.597248993
-0.7038363647,-7.421117706,-2.038910065
-0.3577560425,-9.064999237,-2.391277313
0.6182144165,-8.047714691,-5.489983521
-4.905299377,-9.933044128,-5.938450928
-3.592379608,-13.29056213,-2.710114288
-2.040406952,-10.88820786,-3.448528748
-3.353326721,-5.844745789,-1.954186249
-8.165968781,-7.341632996,-3.133733368
-2.437980194,-6.550378418,-2.001637573
-0.9794132996,-7.090904388,-1.631906433
-1.84177002,-9.018895111,-3.569028168
-3.393742676,-10.33001862,-4.363426208
-3.120261383,-7.831863556,-0.4361929321
-6.336323547,-14.78954498,-2.938688965
-7.323969727,-13.98811157,-8.317902832
-1.586999817,-7.53413269,0.4198768616
0.499511261,-15.99184479,1.798509979
2.173031158,-6.122268677,-6.377637634
-0.08008346558,-10.2174527,-3.018323364
-0.3165916443,-7.405101013,-1.695224762
-2.215243378,-7.651788025,-3.459605713
-3.95492569,-7.92736496,-2.492017822
-0.7442523193,-8.998836823,-2.604134674
0.7777825928,-7.86644165,-3.629203033
-1.505718842,-9.596244507,-5.827531586
-4.103267212,-13.37513626,-4.993316345
-3.075803833,-10.65693878,-2.761307831
-3.462749176,-10.78103073,-1.881138153
-3.038082275,-2.939587097,-1.055305481
-1.986069946,-4.470753021,-1.244362335
-1.422192535,-11.22425903,0.8589138794
-3.738026733,-8.793613586,-6.219865723
-3.303330688,-7.943980408,-4.013903046
-7.644453278,-15.79216003,-0.06915618896
-5.274132385,-18.12715439,-4.849016418
-0.9933343506,-6.494544525,-0.282462616
-1.935175781,-14.03825729,0.7602690125
1.560504913,-5.185516663,-7.866741028
-0.7179071045,-10.16266663,-4.891378326
-0.550405426,-6.515201569,-3.129841461
-2.758463745,-7.912845154,-2.828218689
-0.5128335571,-7.840395813,-4.026327209
1.179547119,-8.765921173,-2.997366943
-1.744172974,-6.603667603,-3.969894562
-4.460274811,-12.40470428,-4.528981934
-3.384162598,-14.72323288,-3.308719482
-2.427052917,-10.61113403,-4.502936096
-4.049079895,-7.713609467,-1.710343323
-3.081042938,-5.491929474,-3.300636292
-1.467847595,-8.069569244,-0.01586700439
-3.429967346,-8.422535248,-2.108814697
-5.687422943,-6.781647491,-1.055754547
-2.928659821,-6.951244812,0.02424957275
-1.039588165,-7.215295715,0.1535806274
-5.763464813,-18.28073502,2.483635254
-2.004481659,-17.42915588,4.007765808
1.169068909,-5.980962524,-2.11555069
1.379381561,-7.116201782,1.549727325
2.368973694,-12.31743576,2.352807312
-0.03697311401,-7.458988953,0.722996521
-1.810485077,-11.03505249,0.8502319336
-0.6634204102,-9.00377655,-0.8629554749
1.10455307,-9.376202087,-0.2610571289
0.4466711426,-11.27829666,1.363664246
-2.414479065,-9.17816391,1.260828094
2.346670074,-10.18482056,-0.4778063965
2.419568481,-9.453740845,0.0390687561
-1.15365097,-9.676327972,1.764380951
0.8390052795,-9.462722168,2.006577301
1.829046478,-9.909842377,2.338586884
2.426154785,-10.69870193,3.811523895
-1.013991394,-12.20921082,2.488874359
-2.49576004,-12.93909302,-0.8126600647
-0.7979905701,-10.17583923,-0.8608598328
-1.660646667,-12.87308029,-1.526375885
-2.715054016,-12.65737885,1.049168243
-5.9826091,-11.68949158,-3.094215546
-4.291575623,-7.833210754,-0.7280859375
0.08158035278,-4.409230957,-2.02888092
-1.333726501,-1.741478577,-2.77657608
-4.036056976,-3.004851379,-4.876708832
-3.605552216,-3.266058197,-4.748275909
-6.044729919,-6.882238312,-9.12203064
-7.16440155,-11.07052872,-11.20554794
-1.299747162,-6.125112762,-4.293970642
-0.6249504089,-10.02225861,-4.821324005
-2.633773041,-9.203012238,-3.044219513
-2.40804245,-8.641529846,-1.478924561
-2.454445953,-11.25000549,-1.635349274
-2.533481598,-8.784183197,-0.7212002563
-0.5816903687,-11.01813766,-2.228415985
0.1386117554,-8.714278564,-2.092199249
-0.5923182678,-9.564360809,-0.7324269104
-2.12722641,-8.319998474,-0.665665741
-0.9361532593,-10.15129028,0.4399351501
-1.40527771,-13.53844666,1.46844635
0.1484912109,-15.11421982,2.299368439
-1.563498688,-8.457712097,1.111738129
-4.097728729,-12.1364621,-6.957082672
-4.32929718,-8.824150085,-0.001796264648
-2.171085205,-12.96678543,-0.6415658569
-2.101180573,-8.051456909,-3.224893799
-3.800596619,-4.20415741,-3.503763885
-2.034569092,-3.694916382,-2.555036774
-1.080153809,-1.00396225,-3.362308044
-1.670376434,-0.8878038025,-7.109166412
-3.288511505,-18.92379776,-6.865024109
-2.327210541,-10.67594925,-1.36546051
-4.888534241,-1.74102951,-6.047574005
-6.887627106,-15.64860855,0.8747808838
-0.9139993286,-8.199349365,-2.636317749
-0.2486329651,-11.49624344,-0.09250762939
0.8015830994,-8.420439606,-1.765279083
0.7113208008,-9.037606201,-0.4436773682
-0.4878355408,-9.562414856,-0.8183482361
-1.185384979,-8.900641022,-0.2694396973
-1.139280853,-9.872569885,0.9042695618
-1.251248016,-14.81813553,1.861379242
-1.797462158,-13.64233063,1.976639557
-1.836231537,-10.94089828,-3.550766144
-5.856870575,-10.7031926,-2.958298187
-3.164120178,-12.07688599,2.902613983
0.3061134338,-10.80722626,-3.104843445
-2.66071701,-3.006797333,-1.034199371
-3.037633209,-2.216590576,-3.263214111
-2.427501984,-2.231559448,-3.81915802
-0.6628216553,-2.333048401,-5.413193207
-5.849835205,-4.889282684,-2.474504242
-2.90530838,-18.95732803,-5.409151611
-2.497406616,-6.165828094,-2.882555695
-2.787952423,-9.208401031,-3.86361557
-2.379302216,-12.66561172,-1.281036072
-0.2935395813,-7.16799408,-1.075663147
-0.3124003601,-10.12928604,-0.666713562
-0.2005828857,-8.152945862,-1.667532349
-0.5016069031,-7.613168335,-1.313668213
-2.120340729,-9.094188538,-1.148262177
-1.485660553,-9.786049805,0.5516029358
-1.313668213,-13.74501709,1.933678894
-0.2511776733,-16.80076263,3.108585663
-1.314865723,-8.521030426,1.467548218
-4.919370117,-10.87817871,-9.908195801
-5.198389893,-8.92069931,-0.3083587646
-3.458258514,-12.01716019,3.280128937
-0.9027726746,-9.906100159,-4.924160156
-4.167333984,-5.297483826,-0.8479866028
-1.621278534,-4.168681183,-3.01068924
-0.6494993591,-0.5057981873,-3.630699921
-2.185305634,-1.408720551,-4.28947998
-4.991669769,-17.51328094,-9.891730042
-2.609673157,-14.60078751,-2.425406342
-3.191213837,-1.273701324,-3.67051712
-5.413791962,-17.47226624,0.8379574585
-0.1655557251,-6.481371918,-3.133583679
-0.1342707825,-9.883197784,-0.8360115051
1.073118439,-9.887089691,-2.015858002
0.5611830139,-8.377329254,-0.8592132568
-1.818568268,-9.203461304,-0.162412262
-2.202669525,-8.514893188,0.1781295776
-0.1561253357,-10.57715469,0.4010160828
-1.083896027,-9.793384552,1.077309723
-1.5925383,-11.14118179,1.950743408
0.1454974365,-13.97942963,2.065554657
0.5995033264,-12.95765442,0.6047424316
-1.137783966,-10.72145462,-3.788022766
1.113534393,-12.09709396,-5.245242462
0.7373666382,-12.97172516,4.17721344
4.26148819,-10.10249176,-2.050585785
2.218835907,-8.839717712,-1.617386627
-0.09340576172,-7.805218964,-1.520538025
-0.9894424438,-8.183482361,-3.3323703
-1.036594391,-6.402036896,-3.299139404
-3.177143097,-4.777614899,-4.456083527
-1.721120911,-3.551664276,-4.847968597
-0.4433779907,-4.74348587,-8.860075378
-5.631888428,-19.12243469,-9.131461029
1.069825287,-6.226601715,-4.653822327
1.567989349,-9.282197571,-5.077291718
1.642234955,-8.121211853,-3.247945862
1.592837677,-9.469757538,-1.763482819
-0.1965412903,-12.32866241,-0.09984237671
-0.4939727783,-9.799821167,-0.2149530029
-0.1896556091,-9.769584045,0.7023394775
-0.2347119141,-7.464078369,0.2606080627
-0.5378315735,-8.936566315,0.7077282715
-1.473236389,-11.01529358,1.274300079
-6.340365143,-8.291108551,-4.902904358
-1.728006592,-6.219416656,-2.736758881
-3.103346558,-8.779243469,-0.4505630493
-2.162852325,-10.94404175,2.232008514
-1.020877075,-10.58389069,-2.118095398
-3.66707428,-6.943910065,-9.013506317
-2.765499115,-9.42500061,-1.351689148
-1.278191986,-5.617218933,-2.847827911
-7.560328217,-6.898105316,-9.593849487
-5.942043457,-16.85929092,-3.720812531
-3.870052185,-3.125500488,-2.849025421
-6.044879608,-3.883224792,-3.18492691
-2.533032532,-6.289021912,-2.226020966
-2.770139465,-4.376598816,-1.754651184
-2.839145966,-6.710545349,-2.619253235
-3.09720932,-10.50754944,-2.733465729
-6.341712341,-7.882158966,-1.341510315
-7.305558014,-8.479716339,-5.065466309
-1.509161682,-8.978179779,-1.444945221
-0.7379653931,-9.865085449,-0.2610571289
-2.445015564,-11.80235687,-0.4873864746
-4.793182526,-16.52264099,-4.50368454
-0.9434880066,-10.20921982,-0.60025177
-0.04430786133,-12.91589127,0.3264710999
0.6915618896,-6.407725067,0.409997406
1.494941254,-8.275241547,-0.4011657715
-0.9961784363,-6.772067413,-5.498066711
-1.490899658,-5.9733284,-1.206640778
-4.298012238,-14.07478134,0.2992277527
0.07888595581,-6.682553558,-3.151696014
-1.710792389,-11.73933792,-4.402794342
-3.073259125,-7.8219841,-5.079986115
-2.800675964,-18.16532501,-1.94939621
-4.697082367,-6.995103607,-5.354515228
-3.343746643,-7.245532837,-0.6978488159
-5.395679626,-7.859705658,-2.666554871
-1.396595764,-2.672243042,-0.7860154724
-0.5397775269,-8.465196533,0.5412744141
2.717748413,-11.39116196,-7.965385895
-1.816921692,-9.97151413,-3.084485779
-3.576662292,-8.580157471,-2.510279846
-3.907474365,-6.637497253,-3.155438232
-2.273621979,-18.74072845,-1.158291321
-6.046376495,-8.640182648,-1.506317596
-1.002315674,-11.76388687,-1.266815643
0.6960525513,-10.57790314,0.6240522766
1.534908142,-6.136638794,-1.356479187
-0.2213896179,-8.990603943,-3.311713257
-0.6143225098,-6.856491852,-3.174149323
-3.030148773,-8.739276581,-1.537153473
-1.76453064,-7.043003998,-3.945794678
0.6459068298,-8.879085846,-3.449127502
2.938389587,-13.23323135,-7.673043823
-3.67755249,-19.77672409,-8.351433105
-5.160219269,-0.8394543457,-1.762584686
-3.398532715,-2.903961182,-3.254981232
-2.284549255,-2.862198029,-1.481469269
0.609382782,-7.17023941,-6.752009125
1.239272919,-12.51502487,-3.269800415
-1.647623749,-8.727301483,-3.739373932
-4.015399933,-7.262597351,-7.849676514
-3.253035278,-16.6274231,0.2142045593
-0.9819580078,-8.25144104,0.5242098999
0.08906478882,-11.23832977,0.7159611511
2.101030884,-11.44744492,-6.376889191
-1.078207855,-7.165449371,-0.5266049194
-3.05514679,-9.308991852,-0.9490264893
-2.618205414,-9.461374969,-5.350623322
-3.246448975,-6.183191986,-2.773881683
0.1904040527,-11.05451202,-3.040776672
0.8433462524,-9.666298828,-3.298989716
-2.282303925,-6.732250214,-2.942880249
-0.09265731812,-9.137747955,-5.272036743
-0.9934840393,-9.492061157,-7.206913147
-4.319268036,-16.17551285,-5.943091278
-4.861889648,-5.570216675,-4.489314423
-1.33267868,0.05478607178,-3.090623016
-2.945275269,-4.179309082,-3.021466827
-3.383414154,-3.735482025,-3.285667419
-0.4616400146,-12.64645157,-4.005520477
0.6839277649,-10.11042526,-4.517306213
-2.755320282,-9.400601349,-6.300697632
-1.355581055,-13.31181793,-5.883814545
-2.658920746,-12.83296371,0.8261320496
-1.918111267,-11.83573746,-4.537963257
0.03622467041,-7.834108887,-0.1128652954
0.04640350342,-11.42993134,0.3496728516
0.5029541016,-6.73030426,-4.255500641
-0.4616400146,-9.936187592,-2.851570129
-1.396146698,-7.98230072,-4.93658432
-0.3724255371,-7.428452454,-1.472637634
1.29405899,-9.712702332,-3.281176758
1.393751678,-7.909402313,-4.643643494
1.510359192,-12.85047729,-7.041058044
0.05418731689,-15.63408875,-6.097719727
-4.052073669,-6.979685669,-6.813680878
-4.409530334,-3.525019684,-3.182831268
-2.695744171,-7.549999695,-2.619253235
-3.216810608,-5.171894989,-0.9776170349
-3.908222809,-8.177045746,-3.486100616
-1.048569489,-7.646698608,-5.42456955
2.180964661,-11.13339798,-2.146985321
2.844385071,-17.50474869,3.012635193
-0.4951702881,-8.146359558,1.206790466
-0.5486091614,-15.52736069,1.891616364
-0.9752220154,-8.37433548,0.4065545654
-2.452050934,-11.32993927,0.4474195862
-1.810634766,-7.348368988,-0.9460327148
-2.017803955,-10.54107971,-0.905766449
-0.9000782776,-9.178612976,0.2601589966
0.08053253174,-10.16176849,-0.4040098572
0.6530918884,-10.52566177,-1.22625
-0.9961784363,-10.19904099,0.384250946
-0.5971083069,-11.07097778,2.17871933
-2.982996826,-14.40259964,-9.597442017
-4.940775604,-10.2878064,1.704206085
-1.090931396,-10.78866486,-4.854105835
4.898563385,-9.175170135,-4.067790985
2.329755249,-2.418820038,-5.068609772
-2.256407776,-3.701502686,-4.914580078
-2.737657013,-3.364104309,-7.0111203
-0.1011895752,-5.206473083,-7.27202774
-1.11862381,-2.758763123,-9.146429901
-5.41513916,-17.82223846,-5.518873444
-0.1561253357,-4.181404724,-3.402873688
-0.8702902222,-11.98497711,-2.982398071
1.937870178,-10.52446426,-0.8756790161
1.185085602,-9.665999451,-0.1796264648
-1.835782471,-13.49997665,0.03667373657
-1.974244537,-8.226143646,-3.363056488
-0.09220825195,-9.058263245,-1.87799469
-0.2457888794,-8.073161774,-1.457818451
-1.321452026,-8.336314545,0.288899231
-1.743574219,-11.90189987,1.957928467
-1.911674652,-16.26293106,2.763852539
-0.9183403015,-10.13721954,1.72351593
-1.154100037,-10.42566971,-6.527775421
-4.073778534,-11.05705673,-1.594933319
-5.740562439,-11.33667526,1.30468689
0.4929249573,-9.441765747,-2.943179626
-1.659598846,-5.765710144,-2.102827148
-3.043620758,-3.613785095,-3.28911026
-1.730700989,-2.059267731,-2.958148499
-1.865869904,-1.944157104,-4.922812958
-3.500021667,-2.971321106,-7.37157074
-3.547922058,-19.71789642,-9.672585754
-2.285297699,-9.261091461,-3.234773254
-2.353256378,-5.237159271,-4.669539642
-3.117417297,-14.9883316,-2.048639832
-0.3736230469,-6.799909515,-2.230811005
-0.1059796143,-9.848320313,-1.509760437
-0.9337582397,-9.282646637,-2.351609802
-0.8309220886,-7.745792542,-0.426612854
-1.9083815,-8.537645874,-0.4487667847
-1.102158051,-9.847272491,-1.928140411
-2.125879211,-10.79225739,0.6010002136
-1.403930511,-15.32992126,2.57419693
0.1981878662,-12.26953537,2.712060242
-1.118923187,-9.524842987,-1.382824402
-5.29703476,-9.124874725,-4.943320313
-5.898184662,-13.56194778,2.729573822
-1.02027832,-10.26011398,-2.044598236
-0.3342549133,-4.530778198,-1.45677063
-2.871478729,-2.233804779,-4.007167053
-2.745141449,-2.176623688,-4.614304504
-1.269210663,-3.251987457,-5.885012054
-3.246898041,-3.034340057,-8.128396912
-6.152655487,-10.54212753,-10.37417679
-0.475411377,-11.80834442,-2.226470032
-3.153641968,-4.185745697,-4.735702057
-3.491639099,-11.94830338,-0.8490344238
-0.9469308472,-10.10294083,-1.991159363
-0.423918457,-8.916208649,-1.485510864
0.05508544922,-10.45665527,-1.935774536
-0.04550537109,-8.96755188,-1.622176666
-0.8083190918,-8.690028992,-0.8273295593
-1.035696259,-8.721313934,0.1511856079
0.4337979126,-9.464967499,0.6261479187
-0.1020877075,-12.36024673,1.583257599
-0.3508703613,-14.11040726,1.99505127
-0.212258606,-10.85258194,2.100581818
-1.241667938,-11.01753891,2.289039917
-2.320923615,-11.18533997,-3.025658112
-3.491639099,-9.686207428,-5.335504761
-6.010151825,-14.07493103,3.502566376
-1.227597198,-9.398505707,-3.21770874
-2.432142334,-7.429799652,-2.220332794
-2.868185577,-3.502716064,-3.469036102
-2.272873535,-3.074756012,-3.210972748
-3.036286011,-2.480641479,-5.3402948
-1.76797348,-0.5463638306,-4.742587738
-5.618266754,-2.741997986,-8.745563507
-6.717281342,-16.88279205,-10.52805679
-1.976040802,-5.403613129,-3.432961121
-2.212399292,-10.16236725,-3.414250031
-2.078727264,-12.73207352,-3.07385788
-1.088237,-9.222172394,-1.683549042
-1.424886932,-9.596693573,0.4231700134
-1.072519684,-8.873697052,-0.2148033142
-0.07723937988,-8.379424896,-1.823058929
0.2930905151,-7.873327332,-0.8207432556
-1.007255402,-9.731114044,0.5147795105
-1.012195129,-8.975485382,0.4632865906
-0.6953041077,-11.33128647,1.266216888
-0.1507365417,-11.31586853,1.559606781
0.1748364258,-15.44548096,2.843636627
0.3854484558,-12.98250275,2.878514099
-2.170336761,-9.325158234,1.179846497
-3.792064362,-10.74390793,-8.259823608
-5.509443054,-10.12015503,2.08157135
-2.875220947,-10.46084656,-1.224902802
-0.7845185852,-7.219936066,-4.781955872
-3.019520874,-3.479664001,-1.648222504
-1.479822693,-2.938838654,-4.357139282
-2.887196045,-2.706821136,-6.059998169
-1.91421936,-2.357447662,-5.602848816
-7.471862183,-6.305188293,-4.380490723
-4.278702393,-14.97485962,-5.048551483
-1.052012329,-7.586374054,-3.298091583
-2.094145203,-8.87160141,-2.890189819
-2.852917328,-11.79577057,-1.217717743
-1.397493896,-9.666598206,-1.654210052
-0.4216731262,-9.471703491,-0.710123291
0.05538482666,-7.82782196,-1.193617859
0.06137237549,-8.262817383,-1.22505249
-0.8713380432,-9.905651093,-0.7569758606
-1.265618134,-8.043373718,-0.0005987548828
-0.7220983887,-10.47955765,1.090632019
-0.6571334839,-10.22837997,0.9535171509
-0.4415817261,-11.36182297,1.60421402
0.5736071777,-13.89904678,1.963317261
1.00276474,-12.3580014,0.9014254761
0.2281256104,-11.11498627,-4.328848114
-2.307301941,-11.46615601,-4.658762054
-2.064955902,-14.08585831,-0.8535250854
-1.60765686,-16.44929352,-1.766027527
-1.279239807,-10.34962784,-1.892813873
-1.484463043,-3.606600037,2.023791504
0.3882925415,-2.19623291,-1.296753387
-1.717229004,0.4275109863,-0.4805007935
-2.586621094,-5.15303421,-4.910688171
-7.426356812,-10.1337767,-7.098688202
-5.781577148,-4.684059448,-1.421144714
-6.713090057,-15.66327805,0.2239343262
-0.2297721863,-2.817890167,-0.763711853
2.195634155,-14.53597229,-2.024390259
1.394200745,-8.461903381,-1.393751678
-0.7463479614,-10.95975906,-0.6373745728
-1.828447723,-10.08782227,-0.8996292114
-4.955445099,-8.619076538,-0.1492396545
-0.102387085,-8.184230804,-2.613565063
1.346300354,-10.47042664,-1.375938721
1.168769531,-8.917406158,-0.4031117249
0.3999682617,-10.06596771,0.6054908752
0.4385879517,-9.092841339,0.1496887207
0.3025209045,-12.9326564,0.1076261902
-1.809287567,-9.122479706,-1.166673889
-0.6689588928,-13.12994614,-1.318158875
0.8304730225,-11.71613617,0.4619393921
0.252973938,-10.45351181,-0.2472857666
-3.389551392,-5.302722931,0.2633024597
-3.637286224,-3.32772995,-1.237776031
-2.681523743,-6.334676971,-2.628084869
-2.168839874,-8.428223419,-4.158801727
-1.979932709,-8.993747406,-3.26216629
-3.913461914,-11.81403259,-3.07266037
-2.872376862,-7.694149933,-1.609303436
-1.840123444,-11.47917892,-0.2245330811
-7.732619934,-20.77469879,-4.95769043
-1.231339417,-3.473526764,-0.2785707092
0.9922865295,-12.40126144,0.9611512756
3.643124084,-10.13677048,-5.440735931
-0.03338058472,-6.297254791,-0.9933343506
-2.787503357,-9.200766907,-2.367776184
-3.246299286,-8.279732208,-4.56805069
-1.731449432,-8.993897095,-1.250200195
-1.551972656,-8.008645935,-0.7854167175
-0.7370672607,-9.954299927,-2.886297913
-2.016307068,-7.248376923,-3.494483185
-0.2649490356,-10.12928604,-4.764292603
0.7159611511,-7.644004211,-3.772604828
-4.086202698,-9.679621124,-7.177723846
-7.243886261,-15.18906418,-9.408385162
-1.49883316,-8.923992462,-5.066963196
-3.446582794,-3.588936768,-3.902983704
-1.954335938,-5.699697418,-2.970722351
-3.030298462,-5.452411652,-2.580932922
-2.447560272,-7.159012756,-6.73614212
-1.406026154,-8.196355591,-2.020947418
-1.901196442,-6.857240295,-2.718197479
-3.073408813,-9.75850708,-3.730392609
-2.002236328,-9.698930969,-2.475252686
-4.577181702,-11.59863052,-1.869911499
-1.730700989,-14.64629288,-2.005679169
-0.590072937,-9.38174057,-1.046922913
0.6101312256,-12.86814056,-0.2568658447
0.8177494812,-6.040838013,-0.7976911926
0.06316864014,-8.760233002,-1.294358368
-1.33387619,-8.386759644,-3.671115875
-1.96930481,-8.925938416,-0.8565188599
-0.8288264465,-9.703421631,-1.252146149
0.6756948853,-7.949967957,-2.273921356
-1.185085602,-7.371421051,-2.741997986
-0.9324110413,-10.29214737,-2.285896454
-2.168091431,-6.687642975,-2.23140976
-2.292033691,-7.789351959,-3.869154053
-4.373455353,-7.93784317,-7.443271637
-2.756817169,-15.37273224,-5.441484375
-2.551593933,-15.48559753,-5.11321701
-3.165467377,-3.556154938,-1.658700714
-3.417992249,-3.981869659,-2.333048401
-4.042044525,-8.026159515,-1.537901917
-0.2074685669,-6.549031219,-1.699116669
0.785716095,-8.961115265,-3.213367767
-2.403851166,-10.52611084,-3.246299286
-5.236560516,-9.063652039,-3.774550781
-3.600163422,-11.1158844,-1.108594666
-1.826651459,-15.75189377,-1.0285112
-0.3649411011,-11.9984491,-3.723506927
-0.6529421997,-12.73985733,-0.1682501221
0.3147953796,-7.485184479,-0.07125183105
-1.16188385,-6.860683136,-1.891316986
-3.474873962,-8.809181213,-4.46850769
-2.023941193,-7.488926697,-1.36546051
-0.1435514832,-8.131240997,-1.341210938
0.9581575012,-8.582103424,-2.938539276
-1.051563263,-9.178912354,-4.60667038
-2.577939148,-9.734556885,-6.499484253
-2.883902893,-14.18585037,-4.049828339
-4.539011078,-10.79899338,-1.334924011
-3.324436798,-1.93652298,-1.921703796
-4.869374084,-7.856711884,-3.314557343
-3.859124908,-5.085973663,-2.77073822
-2.267784119,-7.574548645,-3.980073395
-2.187401276,-9.706116028,-4.755161591
-3.112776947,-8.995094604,-3.929029541
-1.965412903,-8.577313385,-2.847827911
-1.420845337,-14.4057431,-6.297853546
-3.565435638,-10.17973114,0.03966751099
-1.849553833,-10.70947952,-2.049238586
1.648970947,-12.36264175,-4.846022644
-0.1341210938,-8.847501526,-0.4296066284
-1.33971405,-7.896678772,-5.964796143
-2.432741089,-7.730823669,-2.9368927
-3.804787903,-7.23116272,-2.744692383
-0.3124003601,-8.817114716,-2.046993256
1.522933044,-8.85633316,-4.031416626
-0.2037263489,-6.498885498,-3.557651825
-3.414549408,-7.98349823,-6.817123718
-5.078489227,-11.77226944,-5.53219574
-1.870510254,-14.43792618,-3.930975494
-5.434449005,-8.110284576,-1.102158051
-2.970422974,-1.713187408,-2.414029999
-3.606899414,-4.8359935,-0.8994795227
-2.861748962,-8.190218353,-1.68489624
-3.458108826,-8.946296082,-5.100044403
-4.447700958,-8.969797211,-4.501139832
-4.073329468,-7.167395325,-0.7065307617
-1.556014252,-14.19947205,-1.087488556
-4.64409256,-12.05368423,-4.541555786
-0.1466949463,-10.77998291,-1.322649536
-0.7069798279,-10.92054062,-0.7649093628
-0.4986131287,-8.197403412,-4.914729767
-1.057251434,-7.904911652,-3.479664001
-1.077758789,-7.47919693,-3.419788513
-3.395239563,-7.525600433,-2.851121063
-1.863624573,-8.199199677,-2.705923004
-1.221909027,-7.606432343,-2.76609787
-3.550167389,-7.615862732,-6.352489929
-2.153421936,-10.09859985,-5.105433197
-0.1564247131,-16.90359879,-5.095853119
-2.368973694,-10.24754013,-3.566932526
-4.835544434,-6.944808197,-4.08006546
-2.190694427,-7.726782074,-2.75442215
-2.49576004,-5.961502991,-0.7887098694
-2.131717072,-6.06688385,-1.607956238
-2.552941132,-8.416248322,-1.619781647
-5.269342346,-6.515650635,-1.142574005
-2.34607132,-5.36604126,-0.05538482666
-6.412964172,-25.04816208,4.611460419
-1.090632019,-9.695488129,1.389859772
1.196162567,-9.767787781,-8.255782013
1.307381287,-7.002138977,0.6756948853
-0.1859133911,-10.50650162,2.372266846
-0.7532336426,-8.743467865,1.457818451
0.8840615845,-10.85632416,0.6933581543
0.2676434326,-10.40770706,-0.6676116943
0.2790197754,-8.833131409,-0.5701643372
0.1185534668,-10.55994049,2.449057159
-1.124611359,-8.953032074,1.542691956
1.983525238,-9.797725525,0.3977229309
1.195114746,-9.052425385,1.376836853
0.5924679565,-11.7980159,3.078947296
2.604284363,-14.04035294,2.739453278
-0.7891589355,-11.46151566,1.500928802
-1.724114685,-10.79659836,-0.9910890198
0.001796264648,-12.27402603,-2.82687149
-3.113226013,-15.03039413,3.073109436
-3.65180603,-12.15532288,-4.787045288
-2.005080414,-7.841743011,-0.572409668
-0.6387217712,-3.240311737,-1.955383759
-1.752705231,-0.7147636414,-3.175496521
-2.088756409,-3.50556015,-5.187163239
-4.053720245,-3.818259888,-7.666307831
-5.814957733,-9.471404114,-8.840915222
-0.8949888611,-10.81007034,-4.467310181
-3.852688293,-10.29948212,-3.658242645
-1.848655701,-6.615942078,-3.20483551
-3.283571777,-12.02599182,-1.580712891
-0.4466711426,-9.279054108,-2.761158142
0.4517605591,-10.96050751,-2.506238251
-0.6018983459,-9.231752472,-1.089584198
-1.534459076,-7.739056549,-2.807711334
-0.5330415344,-9.712253265,-2.383643188
-0.7493417358,-10.05489075,-0.5357359314
-1.323697357,-11.67497177,0.9737251282
-1.280886383,-14.27461578,2.507735138
-0.3577560425,-14.73984833,3.769161987
-2.130369873,-9.307644653,-3.074606323
-6.825655975,-10.55155792,-8.014034729
-5.848188629,-12.63642242,3.309767303
1.432521057,-11.89725952,-2.00088913
-0.4842430115,-4.942272491,0.3785627747
-3.747606812,-0.5813909912,-2.9568013
-0.7307803345,-1.369801483,-3.05394928
-0.6873706055,0.3152444458,-5.463787994
-6.217770081,-14.34901108,-9.56660614
-3.349734192,-16.79731979,-0.3755690002
-3.00365387,-3.85313736,-3.775149536
-3.334016876,-16.19227798,0.1824705505
0.1134640503,-7.293283539,-2.649490356
0.8132588196,-8.031248932,-1.875749359
-0.2897973633,-8.919052734,-2.194137268
-1.254690857,-9.777667236,-2.536924438
-1.996548157,-9.350455627,-1.690434723
-0.9764195251,-9.391470337,-0.02215393066
-1.811682587,-10.9964328,1.497635651
-0.9024732971,-12.52774841,2.728076935
-0.8268804932,-16.98083817,2.680176544
-3.833677826,-8.624315643,-9.448052673
-8.202492828,-13.03609131,-5.145549774
-3.557801514,-11.62093414,2.973566437
1.99849411,-11.75595337,-1.913470917
-1.597777405,-3.390748901,-0.5947132874
-3.117866364,-0.4610412598,-3.02236496
-2.16928894,-2.009421387,-4.421954498
-0.4334985352,-1.735341339,-5.1027388
-7.50494339,-13.26361816,-9.986333313
-0.6836283875,-14.21758438,-2.491718445
-2.602338409,-6.271508331,-2.218386841
-4.965025177,-15.3374057,-1.750010834
-0.5276527405,-9.11619278,-1.720522156
0.08352630615,-9.242979126,-1.625170441
-0.7873626709,-8.759185181,-1.733096008
-1.002465363,-7.577692108,-1.949994965
-0.1910028076,-8.502618713,-1.652264099
-0.9981243896,-11.32230515,0.3239263916
-3.257076874,-16.31592087,1.658700714
-1.418450317,-12.23256226,1.049018555
-1.222208405,-11.72975784,-7.581284637
-5.22563324,-12.95870224,0.05448669434
-2.452050934,-12.95945068,0.9635462952
-0.0375718689,-5.966442719,-2.363285522
-2.665357361,-0.8554710388,-1.994153137
-2.056872711,-1.509011993,-3.099155273
-1.963916016,-3.359613647,-4.920567627
-3.997736664,-4.215384064,-7.071893921
-6.786736908,-5.847889252,-8.714877319
-4.315076752,-16.57458298,-7.242389374
-0.5745053101,-6.678362274,-2.425256653
-1.643133087,-7.974965973,-3.299289093
-1.953737183,-13.88003632,-1.485361176
-0.51717453,-8.445138245,-1.850601654
-0.2820135498,-8.39065155,-1.064586182
-0.4263134766,-9.235644379,-1.301693115
-0.9774673462,-7.72962616,-1.533111877
-1.519041138,-9.766290894,-0.6107299805
-0.5430706787,-10.06776398,0.02469863892
-0.3083587646,-13.63709152,1.795965271
-0.6730004883,-16.92739929,3.208877106
-2.403252411,-9.379495239,0.569715271
-7.060068512,-11.17082016,-8.832682343
-6.24830658,-10.57026901,1.251697083
-0.825383606,-12.50379822,-0.2043251038
-0.2118095398,-6.522835693,-2.758613434
-4.660109253,-3.002606049,-2.96967453
-3.441942444,-3.763174438,-3.481759644
-1.665287018,-2.172133026,-4.053869934
-4.535418549,-2.249073029,-8.718469849
-9.369915161,-12.08362198,-8.303682404
-2.056124268,-11.51510422,-3.017574921
-1.372944946,-7.98813858,-2.878813477
-4.159999237,-13.44863342,-2.27811264
-0.742306366,-9.968670044,-2.679278412
0.1058299255,-8.349038086,-1.034798126
0.05014572144,-8.303682404,-0.3835025024
-0.3430865479,-9.321565704,-0.7032376099
-2.038760376,-8.114475861,-1.559008026
-1.15604599,-8.174950104,-0.9083111572
-0.6224057007,-10.51443512,0.8726852417
-0.5433700562,-12.39228012,1.441652069
-0.03128494263,-15.87448883,2.592458954
0.2246827698,-10.09156448,0.6532415771
-3.331921234,-10.13452515,-8.305029602
0.9650431824,-12.78072235,3.39089859
3.261417847,-9.509724426,-3.671115875
3.331322479,-6.14412323,1.494791565
2.071242828,-6.715934143,1.139430542
0.3207829285,-8.199499054,1.856289825
-1.418300629,-11.77975388,1.918410645
-6.710245972,-13.34055817,-4.875211945
-5.548362122,-5.083428955,0.3851490784
-5.703439636,-12.88715103,2.794239349
2.743644562,-10.60155396,-7.762707367
1.471589813,-7.963140564,-0.5857319641
0.8394543457,-9.938582611,0.5920188904
-0.4360432434,-9.000483398,1.4239888
0.03562591553,-10.25966492,2.089055786
0.1856140137,-9.616003418,0.8503816223
-0.1948947144,-10.04995102,-0.6423143005
-2.853665771,-10.7204068,-7.710765381
-0.2568658447,-15.47287399,-0.07394622803
-3.051254883,-14.18959259,4.314178619
0.8184979248,-12.37746094,-0.9768685913
0.08322692871,-6.195017395,-0.5328918457
-1.927691345,-1.039887543,0.8030799866
-2.139650574,0.550405426,0.4087998962
-4.220024414,-15.79051346,-1.313219147
-2.282902679,-10.44318329,-5.98500412
-1.385967865,-8.315058746,-1.338067474
-1.513352966,-13.67376526,0.8927435303
-5.858517151,-11.7887352,-1.122515717
-1.097218323,-9.007518768,-2.641257477
0.9032217407,-14.44511124,-1.240021362
-0.001197509766,-5.530249786,-1.584006042
-2.274969177,-8.698860626,-2.70292923
-2.670596466,-7.592211914,-2.571352844
-3.975433044,-7.61960495,-1.296903076
-2.767594757,-9.176517334,-1.436562653
-0.1525328064,-9.381590881,-3.428171082
-1.65914978,-6.535409546,-6.402635651
-2.061213684,-13.4330658,-8.389454041
-3.77470047,-15.84619766,-5.777535553
-5.687422943,-2.969524841,-2.023941193
-5.217550049,-6.779701538,-3.34524353
-2.195783844,-5.334906006,-1.68025589
-0.3522175598,-5.299429779,-1.859133911
0.5357359314,-10.46009811,-3.078947296
-3.206482086,-11.46810196,-4.935686188
-4.66624649,-9.428144073,-2.62688736
-4.741390228,-9.267378387,-0.5357359314
-3.740122375,-12.79778687,-3.796105957
-3.562441864,-19.55398727,-0.7943980408
1.083147583,-7.925119629,-1.714235229
1.116977234,-13.20449112,-1.039737854
0.422870636,-5.522016907,-1.391057281
-0.5704637146,-9.014554138,-4.505031738
-1.251397705,-6.448889465,-2.962489471
-5.372926941,-7.708370361,-1.59014328
-0.537532196,-8.611292725,-1.677711182
1.079255676,-11.11543533,-5.736221466
-4.7072612,-8.023914185,-6.157445526
-2.492766266,-17.51732254,-6.781048737
-2.669698334,-5.215903473,-2.759960632
-4.392316132,1.531764679,-5.823190613
-2.890339508,-5.242398376,-2.627186737
-0.7966433716,-6.823111267,-2.603835297
0.7884104919,-6.9022966,-1.059047699
-0.7946974182,-8.42223587,-6.710695038
-4.111051025,-13.26765976,-5.426964569
-2.667153625,-14.94207779,-5.3602034
-1.904788971,-11.1477681,-0.119002533
-0.7798782349,-9.13834671,0.2790197754
1.228345642,-15.38590485,-18.01144501
-0.4813989258,-6.015989685,0.1369651794
-2.066303101,-11.53171967,-7.025640106
-2.245929565,-8.448880463,-2.985990601
-1.357077942,-8.840166779,-5.128036194
-0.9174421692,-8.4948349,-4.500541077
0.9839039612,-8.297994232,-10.22044647
-4.28947998,-15.6957605,-7.679480438
-2.956651611,-4.441264343,-2.907404022
-3.629203033,-0.07125183105,-3.812721405
-3.09960434,-3.165916443,-4.613256683
-2.608625336,-5.193300476,-5.589376831
-0.09804611206,-5.813610535,-6.21552475
-1.543739777,-10.22583527,-5.234015808
-3.509152679,-8.916208649,-6.170767822
-3.706741791,-7.396419067,-7.777676239
-1.055155792,-15.64217194,-6.503076782
-1.291963348,-7.691305847,-1.057401123
-1.323996735,-11.00496506,-3.477119293
0.173638916,-11.95848221,-1.630559235
-2.489473114,-5.599405975,-4.078418884
-1.792372742,-9.511969757,-5.076094208
-0.936302948,-6.830595703,-2.827919312
0.757275238,-11.04388412,-4.044140167
-0.3656895447,-7.093299408,-5.553601227
-0.8286767578,-6.027515717,-4.793032837
0.5631289673,-12.71830215,-7.228468323
-3.728147278,-9.654174042,-5.275180206
-6.903045044,0.8096662903,-4.461023254
-2.95560379,-5.770799561,-4.575535126
-1.527423706,-5.339546356,-4.773273926
-2.289339294,-2.397863617,-5.5672229
1.030457153,-6.809339905,-4.059408417
-1.808688812,-10.55724609,-8.322094116
-3.303630066,-8.159981232,-5.232518921
-0.8298742676,-8.516090698,-5.041216736
-2.522105255,-12.8358078,-4.547543335
-2.125430145,-7.950866089,2.293231201
-1.108594666,-8.873846741,0.8526269531
1.045426025,-13.51913681,-21.00252502
-2.871179352,-3.746409302,-1.993255005
-1.728156281,-9.258995819,-7.63367569
1.541195068,-5.720653839,-3.363804932
3.27623703,-8.856033783,-4.717440033
-0.4390370178,-18.66573441,-6.743925934
-5.616919556,-5.788762207,-2.217937775
-4.034111023,-3.670666809,-3.835623779
-1.938019867,-5.98500412,-2.362237701
-2.313588867,-6.317762146,-2.986439667
-0.9301657104,-7.800129547,-5.400319977
-0.382155304,-7.286248169,-5.536087646
2.277364197,-10.9340126,-7.812553711
-0.8707392883,-13.05240738,2.471660156
-5.241649933,-18.68743927,1.479972382
-1.603615265,-7.13865509,0.1779798889
-2.654729462,-13.23323135,0.4528083801
-1.459165649,-7.349566498,0.276026001
-0.8951385498,-8.806786194,1.63579834
1.187330933,-11.98707275,3.107837219
2.066003723,-9.125922546,2.236648865
2.305206299,-8.784931641,0.04415817261
2.509381714,-10.5332959,-1.083297272
3.263513489,-14.20066956,-2.456391907
-0.9129515076,-8.280330963,-0.5673202515
-1.270408173,-12.48089584,-0.37676651
1.907333679,-10.75992462,-1.969604187
4.622088318,-9.335486755,-1.169068909
3.882775726,-7.616611176,-3.65539856
4.478836212,-5.835764465,-2.302661591
4.640200653,-2.474055176,-3.858226776
3.42951828,-2.902164917,-4.547094269
3.0258078,-5.840255127,-5.450914764
2.681523743,-10.92113937,-7.375911713
3.340303802,-7.53772522,-2.380948792
0.82373703,-9.316027222,-0.6709048462
4.190386047,-13.73708359,-0.03532653809
4.036056976,-6.062842255,0.3508703613
2.628234558,-14.58881241,-0.4924758911
0.3144960022,-10.32971924,-1.340462494
1.578766937,-9.900711365,-0.1083746338
1.23208786,-7.000791779,0.02918930054
-1.322499847,-8.923393707,0.7915539551
1.741628265,-10.39752823,-1.374142456
-0.1613644409,-10.35247192,1.50242569
1.513203278,-15.36449936,3.782334595
0.3586541748,-14.07762543,1.084494781
-3.059188385,-8.905431061,-6.181844788
-2.531535645,-13.6706218,-1.052910461
-4.994214478,-10.78716797,-0.9587562561
1.907782745,-13.57736572,-1.825603638
-4.45338913,-6.923702087,-2.613864441
-1.331181793,-4.035757599,-1.706451416
-0.6574328613,-0.3631448364,-2.779420166
-0.6179150391,-2.046693878,-4.806504822
-1.576222229,-2.896776123,-5.049299927
-2.099234619,-19.88464966,-4.661456451
-2.025737457,-13.58065887,-1.19586319
-3.807033234,-6.160289612,-1.964814148
-2.371368713,-12.54975266,-1.725461884
-0.4688250732,-7.404202881,-2.059716797
-0.01107696533,-9.054670715,-1.175804901
0.08666976929,-8.160879364,-2.045945435
-0.5158273315,-8.140072632,-1.739832001
-0.8397537231,-9.371711426,-1.12910202
-0.5255570984,-11.88977509,1.5819104
-1.454076233,-14.60318253,1.986519012
-0.7807763672,-13.4330658,2.714305573
-0.9023236084,-8.855435028,1.219813385
-6.987020416,-11.37304962,-11.77765823
-5.05947876,-10.09156448,2.334844666
0.9984237671,-13.70969055,-1.432970123
-2.614313507,-6.498436432,-1.699565735
-3.360212402,-2.878663788,-3.175496521
-2.13770462,-2.817441101,-4.044439545
-1.503922577,-2.166594543,-3.895349579
-4.622836761,-1.326391754,-8.523126068
-6.539002075,-14.02688095,-12.16759735
1.059496765,-9.614506531,-5.149441681
-2.452649689,-8.012388153,-3.355272675
-1.788780212,-9.39925415,-2.742297363
-0.6947053528,-10.18676651,-3.836222534
-1.045276337,-9.81,-1.409319305
-1.151854706,-8.681496735,-3.198548584
-0.9172924805,-8.049361267,-2.873873749
-0.5575904846,-9.117240601,-1.450184326
-0.2278262329,-9.085805969,-1.142274628
-1.313219147,-11.25913651,0.6243516541
-1.612895966,-12.66561172,1.334924011
-0.7417076111,-12.40650055,1.804647217
0.4122427368,-10.04022125,1.064586182
-0.8599617004,-11.34565659,-6.579867096
-4.363725586,-10.78761703,-4.55517746
-5.451064453,-14.29108154,1.329984283
0.3839515686,-11.5817157,-2.553689575
-2.650837555,-5.084776154,-1.134041748
-2.964585114,-2.086511078,-2.826572113
-2.068847809,-1.577120361,-3.610641632
-0.6167175293,-1.71648056,-4.975952454
-5.433101807,-5.328918457,-2.42795105
0.6236032104,-19.26613586,-3.026406555
-2.158960419,-3.608695679,-2.754571838
-3.115471344,-9.865384827,-4.82312027
-1.640139313,-10.44737457,-2.942281494
-1.53041748,-9.024583282,-1.673968964
-1.354383545,-11.13953522,-1.228195953
-0.6114784241,-9.944420471,-2.487976227
-0.4543052673,-8.33915863,-1.772913208
-1.300645294,-8.39768692,-2.208956451
-0.206869812,-8.927584991,-2.086660767
-0.5577401733,-10.47791107,-0.7782316589
-1.420246582,-11.24252106,0.8517288208
-0.5462141418,-12.87188278,1.892364807
0.6655160522,-15.5550531,2.126927032
0.06331832886,-11.47588577,0.3285667419
-3.544030151,-10.05713608,-8.514893188
-5.558391266,-11.97105606,-1.532064056
-1.342558136,-13.10824127,-0.5328918457
0.09265731812,-7.213948517,-2.510279846
-2.973416748,-3.192111969,-2.189796295
-3.270548859,-2.240989838,-3.201542358
-2.96383667,-1.661395111,-4.342320099
-1.400188293,-1.557511139,-6.18394043
-5.364694061,-17.88765244,-14.92546234
0.5031037903,-8.971743164,-0.5643264771
-3.655548248,-7.64999176,-5.072950745
-5.431155853,-15.12544647,-2.245929565
-0.5502557373,-8.316256256,-2.192640381
0.7809260559,-9.700278168,-2.007026367
0.4514611816,-8.290958862,-1.483265533
-0.4513114929,-8.321495361,-1.122815094
-2.333946533,-8.779093781,-0.902024231
-0.8003855896,-10.75034454,0.016615448
-0.05269042969,-10.05309448,-2.174827423
0.100740509,-10.71067703,0.8298742676
0.2311193848,-13.10539719,2.171983337
0.3128494263,-14.8105014,2.809806976
-3.161126404,-9.502988434,-1.06249054
-3.555107117,-12.28270798,-9.447154541
-1.451082458,-12.20172638,-0.8234376526
0.002993774414,-12.67803589,0.5939648438
-0.4273612976,-12.36488708,-2.707270203
-1.40991806,-4.753065948,-1.377734985
-1.351988525,-2.18335968,-1.329834595
-1.779200134,-2.719993744,-1.966460724
-2.434237976,-3.581302643,-4.129163361
-2.00672699,-6.35234024,-6.61444519
-8.563392334,-7.266339569,-5.326673126
-7.826624451,-13.67735779,-9.478289795
0.6005511475,-7.138355713,-1.269959106
-0.3016227722,-14.46636703,-2.906655579
-0.4796026611,-9.379644928,-1.300196228
0.07963439941,-9.168583832,-1.311273193
0.2097138977,-9.751322021,-1.797611847
-0.0002993774414,-9.141190796,0.1332229614
-1.49658783,-8.123008118,-0.0643661499
-0.7209008789,-8.826245728,-0.1103205872
0.4668791199,-10.54272629,-0.9092092896
0.699944458,-9.917027435,-0.8181985474
-1.797911224,-9.207502899,-1.407223663
-0.5301974487,-10.98041611,-1.604812775
0.3192860413,-10.65574127,-3.098556519
0.8039781189,-10.62834824,0.3652404785
-0.5523513794,-13.78573242,-0.1396595764
-2.483036499,-8.888815613,-0.8086184692
-5.49357605,-4.758155365,0.4586462402
-1.620679779,-2.859952698,-1.411564636
-0.9644444275,-4.012106781,-0.82373703
-1.816772003,-11.89606201,-2.577789459
-3.185375977,-9.666598206,-3.723955994
-3.278182983,-10.60978683,-2.55084549
-1.66858017,-10.18511993,-1.030457153
-1.971849518,-16.54539368,-0.8045768738
-3.401376801,-10.97757202,-0.02664459229
0.6926097107,-4.456083527,-1.282832336
1.876198425,-13.45028,-2.282603302
-0.4424798584,-5.280569,-2.86085083
-2.224673767,-9.49640213,-3.033591614
-3.411555634,-6.479575653,-1.735491028
-1.702409821,-10.31729507,-1.259780273
-1.676064606,-7.86419632,-0.572409668
-1.085392914,-9.546098785,-2.9568013
-1.427431641,-7.750582581,-4.213288422
-1.941762085,-12.95840286,-8.336164856
-4.176764374,-13.75010651,-6.147266693
-3.701502686,-5.160668335,-4.189338226
-5.543272705,-3.59327774,-2.637664948
-2.397713928,-6.349645844,-2.524949341
-1.048868866,-4.605772247,-0.6060896301
0.3091072083,-8.333021393,-3.028651886
-2.825374603,-12.24902802,-3.516337738
-4.259991302,-8.402776337,-2.343227234
-3.870950317,-9.640851746,-1.672621765
-2.391576691,-16.11054794,-1.017134857
-3.183430023,-9.599537659,0.297431488
0.7481442261,-12.03018311,-4.091441803
0.5951623535,-11.92899353,-1.020577698
2.22317688,-7.87467453,-2.718347168
0.2094145203,-6.809639282,-0.4331991577
-2.827619934,-8.193511505,-4.52119812
-2.630928955,-6.945257263,-3.057990875
-1.172062683,-9.985285492,-1.989063721
-0.9330097961,-8.951086121,-0.9584568787
-3.018922119,-7.64295639,-5.163063354
-5.290298767,-11.36870865,-8.076903992
-2.615361328,-14.80915421,-3.468736725
-0.6975494385,-4.195625153,-2.975662079
-4.736151123,-6.442003784,-2.852168884
-2.836451569,-1.968556366,-2.697390747
-1.204844513,-3.71497467,-0.8041278076
0.5492079163,-13.89231079,-4.06838974
-2.86324585,-10.13063324,-7.021149445
-5.081333313,-7.493716736,-3.870501251
-3.569177856,-13.64367783,-0.7274871826
-0.7476951599,-9.877958679,-2.336491241
-2.482587433,-12.61471756,-4.235292664
-1.213227081,-10.35516632,-0.6216572571
-1.277443542,-9.951455841,-5.305866394
-1.186133423,-7.43354187,-3.49852478
-2.624192963,-7.963889008,-5.720354462
-0.8635542297,-8.98746048,-2.28514801
-0.203127594,-8.149802399,-2.494412842
-1.996697845,-7.185807037,-5.34373764
-1.699116669,-9.60178299,-7.990832977
-2.594255219,-14.54929459,-6.778953094
-6.064339142,-6.434219971,-9.288634186
-2.26883194,-4.738396454,-1.357227631
-5.932762756,-3.934867401,-3.437601471
-3.113824768,-0.3838018799,-2.313888245
-0.5072950745,-4.756059723,-5.436993713
-0.1281335449,-7.704478455,-5.805677032
-3.118914185,-8.307424622,-6.779252472
-4.20640274,-6.787036285,-5.577102356
-4.969066772,-11.96072754,-2.376907196
-8.16013092,-21.37629776,-11.94590836
-0.9511221313,-5.325774994,0.492026825
1.853146362,-16.00860992,-3.864513702
0.8008346558,-6.213578796,-1.375789032
-2.23605011,-7.686815186,-6.651268616
0.2573149109,-9.011260986,-3.957470398
-1.49883316,-8.254135437,-2.70412674
-2.806064758,-7.917186127,-3.994593201
-0.3525169373,-7.032675476,-4.409979401
-1.541943512,-7.414531403,-6.107000427
1.407223663,-12.91903473,-7.063960419
-1.773062897,-13.74561584,-7.551646271
-4.2321492,-3.680845642,-2.281106415
-4.904550934,-4.810396729,-3.671265564
-3.821253662,-3.329376526,-2.210004272
-1.623374176,-3.009192352,-4.431684265
0.6102809143,-13.97434021,-4.792284393
0.21061203,-8.265362091,-6.286028137
-3.222049713,-9.225465546,-5.468578033
-1.605710907,-12.50888763,-8.453520813
-1.326092377,-10.4111499,0.7836204529
-4.575235748,-10.87653214,-2.87252655
1.060245209,-11.92989166,-4.166735229
-1.250948639,-7.637567596,-1.919458466
-1.16891922,-8.497080231,-4.555925903
0.03547622681,-8.792715454,-3.479065247
-2.437680817,-7.35630249,-3.309617615
-1.573827209,-6.894512787,-4.084855499
-0.3852987671,-8.80723526,-4.985981598
-0.1481918335,-13.52647156,-9.279802551
-5.711822205,-13.14581314,-5.4583992
-6.080056458,-3.112327881,-4.851561127
-4.078269196,-5.786666565,-3.062780914
-1.440005493,-6.534511414,-3.232527924
-6.138734436,-5.738167419,-3.696413269
-3.834575958,-5.963149567,-4.649631042
-1.754800873,-8.644224243,-1.794019318
-0.5132826233,-8.991801453,-7.113507385
1.22160965,-9.270671539,-2.85381546
0.9765692139,-18.07640991,1.147214355
-1.077160034,-6.870562592,0.3409909058
-2.835852814,-17.63886978,1.24376358
-0.6194119263,-6.418053589,-0.3251239014
-1.773362274,-10.25741959,0.1580712891
-0.6053411865,-9.682764587,0.2682421875
1.000220032,-10.10518616,-0.3620970154
0.5613327026,-10.70513855,-0.4815486145
0.2276765442,-10.62415695,0.8551716614
-1.005908203,-12.07987976,-1.866618347
-4.769082642,-12.52280869,-1.497036896
-4.651427307,-9.536518707,-0.1451980591
-0.3122506714,-7.827073517,-4.317022705
2.671644287,-7.465724945,-4.154909821
-2.218087463,-4.770579529,-6.088588715
-4.433630219,-5.457950134,-5.425916748
-1.589394836,-6.240373077,-6.034551086
-2.018702087,-5.310207367,-6.972949677
-2.571652222,-5.345384216,-7.490722961
-2.550396423,-3.995940399,-7.710615692
-5.108127594,-11.22785156,-9.231602783
-3.779490509,-4.30355072,-3.798351288
-1.330583038,-15.83122879,-0.190254364
0.9789642334,-9.98663269,-0.3068618774
0.3924838257,-9.969268799,-2.194885712
-0.9264234924,-9.515711975,-2.788551178
-0.8364605713,-8.021070099,-3.505111084
-0.2541714478,-9.893376617,-1.883682861
-0.5981561279,-9.674531708,0.01437011719
-0.7948471069,-9.594148865,-0.1571731567
-0.5173242188,-11.60282181,1.217418365
-0.2911445618,-16.34496048,2.027384033
-0.3305126953,-12.58133698,1.97274765
-4.591551819,-10.47761169,-10.5478157
-3.973487091,-9.286538544,1.242266693
-0.7096742249,-14.37894882,1.291065216
-0.4818479919,-6.619833984,-1.273551636
-3.349135437,-3.62022171,-3.614234161
-3.32533493,-2.826572113,-2.818189545
0.01317260742,-0.8991801453,-5.059927826
-1.866468658,-1.957928467,-6.645730133
-6.8133815,-16.71124878,-11.68530029
-0.2576142883,-7.495213623,-1.551673279
-2.170935516,-4.599335632,-4.608466644
-5.874384155,-16.46231644,0.273331604
-0.7614665222,-6.91052948,-2.684667206
-0.0002993774414,-11.16064133,-2.071691895
-0.08846603394,-9.256900177,-1.946402435
-0.5025050354,-8.932375031,-0.75353302
-1.704206085,-9.365574188,-0.40251297
-1.013841705,-8.850345612,-1.080752563
-0.7030879211,-11.61180313,1.27894043
-1.364712067,-13.28592178,1.78668457
0.7217990112,-15.08682678,2.287243652
-1.934726715,-9.073232117,-4.328399048
-7.319928131,-11.22485779,-6.800358582
-7.003336487,-11.60117523,2.226170654
1.374741211,-13.01812866,-3.047213287
-0.1267863464,-4.810845795,-1.174008636
-2.982248383,-2.699037323,-3.20603302
-2.467319183,-1.909279633,-3.23058197
-0.07679031372,-2.707868958,-4.623734894
-1.652713165,-3.385809174,-4.22631134
-6.830446014,-24.26813416,-7.572303314
-2.482437744,-3.443888397,-2.053579559
-3.540437622,-7.56811203,-3.631747742
-1.666783905,-12.37087463,-3.652105408
-0.8068222046,-8.987759857,-2.068249054
0.5319937134,-8.796457672,-2.379601593
-0.02484832764,-9.463320923,-1.748963013
-1.197360077,-8.603808289,-1.553619232
-1.509760437,-8.868158569,-0.5051994324
-0.6914122009,-10.31519943,0.1419049072
-0.8815168762,-11.74861862,1.228794708
-0.7831713867,-14.93055176,2.118694153
0.7339237976,-13.12051575,1.242566071
-1.99849411,-10.74061478,-8.157137146
-4.00866394,-11.67736679,-3.825894012
-7.106322327,-14.67638031,2.82342865
0.8315208435,-10.81635727,-0.0549357605
-0.3227288818,-2.227218475,-0.04595443726
-0.9294172668,0.5239105225,-2.27227478
-2.987786865,-1.160087585,-3.954776001
-5.19629425,-4.439168701,-3.596720581
1.361867981,-20.83846619,-4.021237793
-2.966381378,-6.135590973,-1.878743134
-2.016756134,-7.30720459,-4.76923233
-2.241139526,-15.67136124,-0.5111869812
-0.5278024292,-8.196654968,-2.580783234
-0.9725276184,-10.71187454,-1.241967316
-0.2369572449,-9.407936096,-1.550475769
-0.193996582,-8.591533813,-1.199156342
-1.206491089,-8.963809662,-0.2237846375
-0.8696914673,-8.936865692,0.4739144897
0.043409729,-11.70730453,1.232686615
-0.3975732422,-15.2591185,2.165995789
-0.8446934509,-12.62564484,1.86512146
-2.538121948,-10.53015244,-6.86487442
-3.860771484,-8.349187775,-2.263892212
-4.574187927,-15.25178375,2.692750397
-0.7405101013,-10.12240036,-2.340383148
0.4465214539,-2.826272736,-0.5496569824
-3.310515747,-2.494412842,-2.409539337
-2.787054291,-1.864672394,-4.584067383
-0.4423301697,-1.476379852,-6.962621155
-5.137915649,-19.28379913,-10.14215927
-1.01683548,-11.13145203,-4.223916321
-2.386636963,-3.223247223,-5.239254913
-3.414699097,-11.5604599,-1.321302338
-0.4813989258,-10.05010071,-2.218835907
0.3077600098,-8.844058685,-1.665137329
0.2421963501,-10.15667908,-0.841999054
-0.1589694214,-8.83881958,-1.773062897
-0.3929328918,-8.503816223,-0.9813592529
-1.088985443,-9.009315033,0.1140628052
-1.173260193,-9.809850311,0.8352630615
-0.4065545654,-10.18302429,1.198407898
0.7613168335,-12.91888504,1.691183167
1.719025269,-13.83707565,1.504072266
-0.2442919922,-11.46301254,-0.2097138977
-2.537223816,-11.65087189,-6.823410645
-0.3748205566,-10.19574783,-2.292333069
-2.534978485,-15.12679367,0.2592608643
-1.262025604,-13.66104172,-2.242187347
-1.369801483,-8.390202484,-2.317780151
-1.196162567,-2.187251587,-1.068927155
0.01212478638,-0.5381309509,-2.252964935
-1.449435883,-2.025288391,-4.988825684
-2.066153412,-4.98807724,-6.797664185
-5.67140625,-5.994434509,-3.560046844
-8.385711823,-14.69868393,-9.335786133
-1.416654053,-9.974657593,-1.328487396
0.4640350342,-5.618117065,-3.414100342
0.5254074097,-13.29864532,-1.442550201
-1.559906158,-9.044042816,-1.001716919
-1.17131424,-10.16940262,-0.950223999
-2.30041626,-8.724457397,-1.323697357
-2.098336487,-8.198900299,-2.215243378
0.6601272583,-10.10982651,-3.732338562
0.3689826965,-10.00699036,-0.07723937988
0.7168592834,-9.262738037,0.3481759644
0.2257305908,-9.955497437,0.3650907898
-0.1288819885,-11.42349472,0.6712042236
0.7108717346,-10.34154465,-0.1981878662
-1.148860931,-9.459429016,-1.713486786
-3.038381653,-13.26227097,0.1260379028
-0.6939569092,-9.329648895,0.1297801208
-4.102818146,-8.521479492,-2.020947418
-3.20483551,-7.0708461,-1.092428284
-1.772015076,-4.202361145,0.2481838989
-1.935175781,-5.220244446,-2.223476257
-2.586172028,-8.413254547,-6.328689423
-1.150956573,-10.97906891,-3.870052185
-0.7845185852,-8.414601746,-0.2204914856
-2.142195282,-10.74076447,-0.6971003723
-7.386539612,-16.37938889,-4.319268036
-4.932542725,-8.044122162,-0.08427474976
1.339564362,-10.26176056,0.5608836365
4.23693924,-14.48597626,-4.287084961
0.4243675232,-6.705904999,-0.6396199036
-1.997895355,-8.755592651,-2.742596741
-2.290836182,-6.5267276,-3.339705048
-4.473297729,-7.744145966,-2.071242828
-1.376387787,-8.77325592,-2.626138916
0.6366261292,-9.059161377,-4.817432098
0.1434017944,-8.017776947,-5.111869812
-3.249742126,-10.14590149,-7.115603027
-3.387755127,-12.44916183,-8.091723175
-2.084565125,-10.62191162,-4.218677216
-3.940256195,-1.879042511,-3.50211731
-4.266727295,-5.932613068,-2.271526337
-1.866917725,-2.913092194,-0.6300398254
0.03966751099,-10.88371719,-3.663032684
-0.3345542908,-11.80160843,-5.776188354
-3.252735901,-9.935588837,-3.374881897
-6.398594055,-8.87160141,-1.586999817
-1.749561768,-10.445728,-0.9108558655
-4.293521576,-15.96490082,-1.785636749
-1.93652298,-9.008416901,-0.4522096252
1.057550812,-16.85105804,-0.8271798706
1.203048248,-4.357887726,-2.367327118
0.3841012573,-9.784103851,-3.223097534
-1.653012543,-6.316564636,-1.058448944
-5.710325317,-8.941506042,-6.65306488
-0.3385958862,-7.7237883,-1.218615875
2.088906097,-10.51174072,-4.935536499
-2.722239075,-7.547904053,-6.200555878
-2.444566498,-16.85315369,-4.678670654
-3.613336029,-8.870254211,-5.957311707
-2.660267944,-5.112767944,-2.07109314
-4.038751373,-3.584595795,-2.188149719
-3.678450623,-7.099137268,-2.303110657
-0.0940045166,-7.077282715,-2.944975891
-1.386716309,-10.11686188,-5.552553406
-1.808838501,-9.316925354,-5.218298492
-2.097737732,-10.25158173,-2.98135025
-2.848726044,-8.582253113,-3.820056152
-2.09908493,-9.398206329,-3.147804108
-1.337169342,-7.653883667,0.1145118713
-7.510481873,-22.39867172,-11.14252899
0.5516029358,-6.508315887,-1.043031006
0.5426216125,-10.69016968,0.07185058594
0.9081614685,-6.564898224,-2.16928894
-1.935026093,-6.719975739,-0.1050814819
-3.274889832,-8.197852478,-6.372997284
-0.6765930176,-5.79190567,-3.140768738
2.339185638,-10.99478622,-2.489323425
-0.1428030396,-16.02327942,-10.30906219
-7.795189819,-14.27057419,-3.309318237
-5.263803864,0.3712280273,-5.101241913
1.006656647,-5.836662598,-2.30625412
-3.091072083,-5.804479523,-3.716920624
-2.287992096,-2.107018433,-5.726042633
-1.691332855,-12.69809418,-1.624421997
-4.478985901,-10.50156189,-8.452772369
-3.3230896,-8.636290741,-4.02393219
-4.358935547,-7.22757019,-2.669848022
-1.414259033,-18.24930038,-10.0170195
-1.46141098,-9.750872955,0.2429447937
0.6939569092,-12.96064819,0.4128414917
2.309397583,-8.183182983,-3.700454865
-0.7373666382,-7.851772156,-2.756817169
-2.68062561,-8.327931976,-4.727319489
-2.634970551,-7.354057159,-3.334016876
0.2653981018,-8.960965576,-3.466042328
0.2692900085,-9.403595123,-3.608096924
-2.553839264,-5.939798126,-3.343896332
-2.138153687,-9.314230957,-5.279072113
-0.3326083374,-16.40917694,-8.265212402
-5.122048645,-12.85392014,-6.824757843
-2.604284363,-1.417103119,-4.561614075
-4.319118347,-4.727918243,-4.111799469
-4.104015656,-4.772375793,-4.35968399
-3.447929993,-4.246369629,-4.00986145
0.9843530273,-6.391408997,-3.224893799
-0.1633103943,-14.14767975,-5.989045715
-2.870131531,-4.416116638,-7.080426178
-2.159110107,-10.6129303,-3.351530457
1.045426025,-10.42342438,-6.989265747
-2.3237677,-13.59592712,-3.521876221
-0.6518943787,-6.782096558,-0.772842865
3.560196533,-14.59060867,-7.715854797
0.7346722412,-9.778265991,-2.031725006
-4.785099335,-7.66870285,-2.583926697
-1.81362854,-7.103178864,-5.381010132
0.5593867493,-7.185807037,-2.700234833
0.1697470093,-7.817044373,-3.862118683
-1.137035522,-8.275241547,-7.259304199
-0.6646179199,-15.0892218,-7.985593872
-4.262985077,-8.619226227,-1.198707275
-2.605481873,-8.611292725,-4.905449066
-2.035467224,-5.72409668,-1.699565735
-2.021396484,-1.515747986,-2.224524078
-1.75510025,-9.511371002,-5.506299591
-0.3772155762,-5.887706451,-6.734046478
0.15328125,-12.70917114,1.229393463
-9.22845932,-17.95171921,-3.937412109
-2.309996338,-10.16206787,2.249522095
-0.4634362793,-13.8403688,3.809428253
-0.9333091736,-10.2559227,0.3382965088
-0.1365161133,-5.687123566,-0.9994715881
1.20050354,-11.20794296,-1.081351318
1.129551086,-9.677675171,0.1519340515
1.965412903,-9.42739563,0.6337820435
2.530188446,-8.39888443,0.08008346558
1.100361786,-12.98624496,0.4158352661
0.2884501648,-16.66948563,-1.110690308
-6.13828537,-10.74211166,-2.190694427
1.844165039,-8.657845917,-1.723665619
6.264772339,-9.763895874,-2.552042999
4.565505981,-4.129612427,-4.490960999
1.642684021,-5.228776703,-4.916076965
3.151396637,-3.970493317,-7.113507385
3.541485443,-3.658392334,-6.719227295
1.284179535,-2.190544739,-7.85012558
1.979034576,-13.09851151,-10.58299255
0.3761677551,-6.200406189,-2.171085205
1.38776413,-9.618997192,0.4876858521
4.683311005,-12.52220993,1.90718399
3.803440704,-8.336164856,-1.268911285
-0.8960366821,-9.864786072,-1.185983734
0.4773573303,-11.35359009,-1.433119812
0.4945715332,-8.699010315,-0.883762207
-0.9536668396,-9.573491821,0.4709207153
0.9497749329,-10.66217789,-1.801204376
-0.6472540283,-9.714199219,2.528841248
-1.254840546,-14.48552719,3.386557617
-1.436562653,-14.73775269,3.384461975
-2.774630127,-10.32507889,-14.44361435
-2.686014404,-13.41794724,-3.024161224
-4.805157623,-11.803255,2.05238205
-0.3303630066,-9.785600739,-2.260898438
-2.106269989,-5.053491211,-1.4239888
-2.311343536,-2.653681641,-2.146236877
-1.673669586,-1.39360199,-4.178261261
0.3068618774,-2.015408936,-6.265371094
-1.197958832,-3.033441925,-5.026996307
-4.652175751,-15.31914368,-10.18077896
0.6321354675,-15.02320908,-1.653461609
-3.096610565,-2.248174896,-1.923200684
-7.083869019,-20.61992065,-0.6183641052
-0.3065625,-7.56571701,-1.6907341
1.184337158,-10.81845291,-1.519490204
0.3993695068,-7.744445343,-1.797462158
-0.2414479065,-8.821006622,-1.11622879
-1.258433075,-9.395661621,-1.358874207
-1.16188385,-12.76799881,0.8222401428
-3.626957703,-15.24699371,0.9894424438
-1.541943512,-10.30352371,-1.255289612
-1.479523315,-13.26077408,-7.544610901
-6.098318481,-12.76455597,-0.1905537415
-0.9922865295,-12.67444336,1.417103119
-0.5560935974,-4.241429901,-1.569186859
-3.117267609,-1.23208786,-2.643353119
-2.908152466,-1.807042236,-4.219725037
-0.7153623962,0.2811154175,-4.372706909
-4.869673462,-5.694608002,-4.877008209
0.5978567505,-18.68609207,-0.8616082764
-1.60885437,-1.23208786,-3.497926025
-5.104535065,-16.27355896,-0.01706451416
-0.6623725891,-7.602241058,-2.112257538
-1.054107971,-9.722432098,-1.550026703
-0.5617817688,-10.98655334,-2.275118866
-0.2508782959,-8.114026794,-1.285676422
-0.7902067566,-8.715476074,0.3106040955
-0.7532336426,-9.011560364,0.6771917725
-0.6027964783,-10.48404831,0.3745211792
-1.13853241,-14.93713806,2.221829681
-0.2436932373,-13.43710739,1.660197601
-2.097588043,-8.836274872,-4.930896149
-7.572153625,-12.39048386,-5.69131485
-2.927013245,-13.53111191,3.53594696
-1.927841034,-10.47297134,-1.000818787
-1.691781921,-5.148543549,-2.190095673
-3.037333832,-2.829116821,-2.177671509
-2.596350861,-0.3715274048,-4.064048767
0.3498225403,-0.8961863708,-4.900209961
-7.613916779,-10.28930328,-9.077872467
-0.09849517822,-12.53478378,-2.102078705
-2.861449585,-2.249971161,-3.635639648
-5.434299316,-11.66359543,-1.288670197
-1.64283371,-11.60566589,-2.686014404
-0.04939727783,-10.26445496,-1.872456207
0.5920188904,-8.931776276,-2.678080902
-0.136665802,-8.909173279,-1.762734375
-1.461560669,-7.544910278,-1.924547882
-1.275497589,-9.559870148,-1.116977234
-0.9794132996,-10.7111261,-0.05792953491
-0.790506134,-14.3367366,1.240470428
-0.2643502808,-14.01924683,1.255588989
-2.279759216,-8.777297516,-3.596271515
-6.362219696,-10.60724213,-6.20729187
-4.67911972,-11.85325104,2.077679443
-0.3950285339,-11.94815369,-2.156864777
-1.501527557,-7.482939148,-2.509082336
-3.171604614,-4.296066284,-3.678450623
-2.50743576,-3.30782135,-3.253184967
-2.741399231,-1.466201019,-4.923561401
-1.292711792,-1.91661438,-6.582561493
-6.940317535,-13.2790361,-11.53351593
-0.48559021,-9.186247101,-3.109483795
-1.844763794,-7.360044708,-2.694546661
-3.336262207,-12.17133957,-2.062560883
-1.113085327,-6.705156555,-2.025887146
-0.7032376099,-9.997709656,-2.946173401
-0.1618135071,-9.988578644,-1.462309113
-0.2908451843,-8.666527863,-1.520538025
-0.772842865,-9.559271393,-1.567540283
-0.4333488464,-8.682694244,-0.2395019531
-0.8330177307,-8.980724487,-0.6548881531
-0.7126679993,-10.82668579,-1.434616699
-0.8152047729,-10.50201096,1.325942688
-0.1332229614,-14.30260757,2.249671783
1.534758453,-14.19243668,1.734143829
2.081122284,-10.68822372,-1.459315338
-1.149759064,-8.22449707,-3.388802948
-8.027506714,-13.37648346,0.1595681763
-1.114881592,-13.2869696,-1.190773773
0.1432521057,-5.873336334,-3.1253508
-3.033441925,-4.287833405,-3.189417572
-3.603456573,-4.652175751,-3.607947235
-1.050665131,-0.9904902649,-2.986589355
-1.062191162,-2.884651337,-5.64565979
-4.008065186,-5.81301178,-6.304290161
-7.247329102,-5.281317444,-5.243895264
-8.535699921,-15.0573381,-16.67682037
-7.557484131,-4.606221313,-4.738695831
1.004561005,-12.46547791,-1.451381836
-0.2071691895,-8.697064362,-3.934717712
-1.229543152,-13.88467667,-0.2640509033
-0.1300794983,-9.11963562,-2.970722351
-0.4725672913,-8.008496246,-1.529968414
-1.782642975,-9.590855713,-0.6291416931
-1.519789581,-9.297166443,0.2070195007
0.112565918,-9.49879715,-0.02050735474
0.7903564453,-9.186995544,0.1411564636
0.4055067444,-10.8650061,0.8138575745
-0.3415896606,-9.1769664,0.6857240295
-0.3192860413,-9.825717316,0.7851173401
1.034498749,-11.09073669,0.5471122742
2.926564178,-8.44334198,-2.793490906
1.511407013,-9.466165009,-2.548899536
0.2311193848,-13.30747696,-1.917362823
-1.57607254,-11.58530823,0.7866142273
-0.7903564453,-8.684041443,-0.8491841125
-3.051853638,-9.448651428,-1.368753662
-4.270469513,-6.123915253,-1.285227356
-4.549638977,-4.554279327,-1.301992493
-2.345771942,-6.347250824,-2.267484741
-0.9005273438,-7.87587204,-2.439028015
-3.349584503,-8.311915283,-2.33783844
-6.193670197,-11.10061615,-4.96697113
-0.9404942322,-9.008117523,-1.942660217
-0.02380050659,-10.13617172,-0.1562750244
-2.202370148,-10.87009552,0.3921844482
-12.10397964,-16.72202637,-4.471501465
0.03173400879,-3.754941559,-0.8650511169
1.555565186,-18.79671204,0.9490264893
2.420466614,-3.448079681,-3.221001892
-0.05254074097,-8.940158844,-3.290457458
-0.9901908875,-8.154442749,-2.256856842
-1.595532074,-9.254355469,-2.326013031
-1.696272583,-7.996820526,-3.022963715
-5.459147644,-7.576045532,-5.152585144
0.6032455444,-8.79196701,-6.172564087
-0.7183561707,-9.99950592,-5.689368896
-2.895428925,-13.58739487,-6.827302551
-3.243305511,-7.336094513,-3.91750351
-4.232598267,-2.85381546,-2.965183868
-5.311105499,-6.661447449,-4.089196472
-2.253264313,-4.800517273,-1.879042511
-0.7942483521,-6.45891861,-2.200274506
0.4429289246,-10.43390259,-3.727548523
-0.7235952759,-9.247020721,-3.733985138
-2.198178864,-10.95901062,-2.643802185
-9.250164185,-18.12161591,-1.196012878
-1.100810852,-7.477700043,-2.440375214
0.8878038025,-13.03369629,-0.5357359314
3.229683838,-8.016729126,-6.769971771
0.2019300842,-5.087470551,0.4565505981
-1.028660889,-7.360044708,-0.312999115
-6.365363159,-10.65080154,-4.611759796
-1.882784729,-6.107150116,-2.006876678
-1.003064117,-10.40022263,-2.163900146
-3.152893524,-8.363408203,-5.718707886
-3.078647919,-15.69097046,-7.957452393
-2.424059143,-8.842861176,-2.489473114
-3.716920624,1.253643036,-2.780318298
-5.946534119,-4.086202698,-4.874762878
-2.794987793,-6.938221893,-1.443148956
0.6246510315,-4.856949921,-3.766317902
-1.842518463,-16.0222316,-6.348298645
-1.876198425,-7.251370697,-6.099066925
-3.352578278,-8.74750946,-3.720812531
-2.772684174,-9.627230072,-7.162904663
-4.002227325,-11.88513474,0.2430944824
-1.927990723,-14.83100876,-2.265089722
-0.3623963928,-7.597750397,-2.738106079
-2.10731781,-9.773026886,-1.402433624
-4.421206055,-5.891598358,-5.64446228
-2.696193237,-6.598278809,-4.996908875
0.8809181213,-10.6514003,-2.672392731
0.4373904419,-6.380781097,-3.416794739
-3.737727356,-7.056026917,-5.722749481
-2.510429535,-13.27289886,-7.103777618
-4.337829437,-10.26969406,-7.900271301
-4.14907196,-3.119962006,-1.599723358
-5.622757416,-2.888543243,-4.490062866
-2.461930389,-2.396516418,-2.013013916
-1.499581604,-4.444557495,-3.725452881
0.5177732849,-11.22934845,-4.133504333
-2.39636673,-8.855734406,-6.400689697
-3.103645935,-6.916217651,-3.219954071
0.748742981,-23.10325653,-17.13636475
-1.213676147,-6.536008301,1.130598907
-0.8138575745,-11.75909683,0.652792511
0.8027806091,-12.98280212,-1.592687988
-3.12759613,-5.02205658,-2.161056061
-1.597927094,-9.306147766,-3.562292175
-0.3999682617,-7.147337036,-4.681215363
-2.35894455,-8.648864594,-3.569177856
-2.260449371,-6.709946594,-4.289330292
-0.6584806824,-7.251819763,-5.785169678
1.694176941,-10.95152618,-5.650898895
-2.543361053,-14.55947342,-9.189540253
-8.967402191,-7.154971161,-5.930816803
-5.072651367,0.6788383484,-2.738106079
-3.139720917,-5.406756592,-3.839964752
-2.330204315,-2.882555695,-3.633394318
-1.388961639,-3.489094391,-7.451953583
-1.213825836,-12.58418106,-4.216132507
-3.319646759,-9.135502625,-9.056916046
-2.518812103,-9.426796875,-3.477268982
-5.232369232,-18.35333405,-8.524473267
-1.068178711,-7.481142883,0.2826123047
0.4942721558,-10.13272888,0.6045927429
3.693868561,-11.00855759,-10.03872437
-2.012714539,-6.397097168,-6.034251709
-1.809137878,-7.883655853,-4.038901062
-1.938019867,-7.801027679,-3.610342255
-1.764979706,-6.740632782,-5.003195801
-0.9202862549,-9.135203247,-3.507206726
-1.706301727,-6.682104492,-5.485043793
-2.88195694,-9.764494629,-8.059689789
-0.3751199341,-13.63858841,-6.408174133
-8.334069214,-10.35756134,-3.692371674
-3.925736389,-0.01466949463,-4.256099396
-3.497327271,-8.434959412,0.1151106262
-3.142265625,-5.521717529,-3.564836884
-3.782035217,-5.557493134,-5.277724915
-2.449506226,-6.830296326,-3.062481537
-1.247505798,-8.484805756,-7.945626984
1.921554108,-11.18189713,-3.797004089
1.359922028,-15.94110031,0.5433700562
-2.710263977,-7.956703949,0.3427871704
-1.849553833,-12.08511887,0.3257226563
-0.04056564331,-5.639971619,-0.7041357422
-1.305884399,-11.96581696,0.154329071
-0.3359014893,-8.978778534,0.2752775574
0.6973997498,-9.871072998,-1.023421783
-1.167422333,-10.09979736,-1.452878723
-0.2580633545,-9.642049255,-1.234782257
-1.28358078,-12.84434006,1.402134247
-4.59379715,-10.22239243,-0.2619552612
-4.718038788,-12.64375717,-2.395618286
-1.981429596,-11.40029297,-3.277883606
1.902843018,-6.475534058,-4.561314697
-0.3646417236,-3.149300995,-4.823269958
-5.445226593,-6.23423584,-4.908891907
-3.912563782,-5.885760498,-5.589825897
-2.642754364,-4.943919067,-6.274801483
-2.437531128,-4.572092285,-6.30324234
-4.471052399,-6.450236664,-8.009693756
-8.055348816,-12.48254242,-7.867190094
-4.080963593,-1.775607605,-3.84026413
-1.366807709,-11.99785034,-2.413131866
0.1975891113,-13.71642654,-0.3126997375
-0.7557783508,-9.38757843,-2.615960083
-3.958817596,-10.86994583,-1.651365967
-0.4385879517,-8.767567749,-2.447111206
1.1864328,-9.425299988,-0.2154020691
0.6727011108,-8.778195648,-0.5492079163
-2.058369598,-7.70732254,-1.661993866
0.2426454163,-10.03243744,1.065334625
0.008981323242,-12.56726624,1.510359192
-0.9997709656,-12.27537323,1.552571411
0.1134640503,-14.2797052,2.108964386
-0.6634204102,-8.655899963,1.112037506
-2.170336761,-11.20315292,-8.735234985
-8.208181,-14.04828644,-2.292482758
-1.894161072,-13.78393616,0.1760339355
2.927312622,-8.858578491,-1.920655975
-3.643423462,-3.833827515,-2.644999695
-3.471281433,-1.10335556,-2.693798218
-3.464246063,-0.9006770325,-4.105213165
-2.190095673,-3.04451889,-5.838009796
-3.836072845,-3.023263092,-8.512947235
-4.818779297,-18.26067673,-10.07165588
-2.132465515,-3.420387268,-5.170547791
-1.930535431,-10.3116069,-4.115841064
-1.646575928,-10.38854691,-2.174378357
-1.988464966,-12.03093155,-2.643502808
-1.128652954,-10.15158966,-1.955832825
-0.5807922363,-9.615404663,-2.627037048
-0.6918612671,-9.051976318,-1.42638382
-1.747466125,-8.118367767,-1.728006592
-0.3719764709,-7.778424683,-1.225950623
-0.5125341797,-12.51741989,1.230141907
-3.030897217,-14.43553116,1.689835968
-0.0809815979,-12.45140717,1.732497253
-0.3207829285,-10.2319725,-7.953261108
-6.536457367,-11.09612549,-2.505489807
-1.382375336,-14.14738037,2.535427551
0.07020401001,-7.223229218,-3.558549957
-3.350482635,-4.000730438,-2.831212463
-3.178639984,-3.760929108,-3.033741302
-1.253493347,0.03787124634,-3.451223145
-2.277663574,-2.650388489,-6.387367401
-7.823480988,-15.42676987,-14.71754471
-0.04071533203,-7.128625946,-2.427501984
-1.353485413,-8.940907288,-3.992497559
-2.458936615,-10.20353165,-4.487218781
-1.465153198,-8.272846527,-2.902913361
-0.1806742859,-12.09889023,-1.368454285
0.7942483521,-8.904832306,-2.519261169
-0.885408783,-8.795260162,-3.148552551
-1.519190826,-9.157656555,-2.059716797
-0.8780740356,-9.569749603,-1.487756195
-0.3047662354,-9.225166168,-0.7297325134
-0.5457650757,-13.2007489,0.2619552612
-0.4113446045,-13.80848511,0.9452842712
-0.00209564209,-11.2021051,1.398541718
-1.524280243,-10.3036734,0.8544232178
-6.657854919,-10.82593735,-10.8292305
-5.668861542,-10.55964111,0.2206411743
1.39360199,-14.9405809,-4.132157135
-2.503693542,-6.43077713,-2.166744232
-2.710114288,-3.829187164,-2.438578949
-3.216211853,-2.116598511,-2.986289978
-1.967209167,-1.223705292,-4.652924194
-2.36238739,-2.827919312,-6.467600555
-7.407046967,-7.748187561,-4.53990921
-2.965333557,-12.09889023,-4.921016693
-3.121309204,-6.065836029,-5.578898621
-2.168540497,-10.98969681,-2.097887421
-1.670526123,-11.81298477,-1.51529892
-0.2008822632,-9.544152832,-3.278033295
-1.482217712,-9.833950195,-2.339335327
-0.3743714905,-7.972870331,-2.630779266
-0.4810995483,-8.64811615,-2.100731506
-1.352886658,-7.861501923,-2.979553986
-2.511177979,-9.626481628,-2.352358246
-1.613345032,-9.283544769,-0.5623805237
0.7812254333,-12.24363922,1.19466568
0.7023394775,-15.63154404,2.112706604
-0.4430786133,-14.52983505,1.458866272
-2.950214996,-10.28166916,-6.768474884
-5.776487732,-10.01297791,-5.091212769
-3.899989929,-9.882299652,-1.161734161
-2.543361053,-12.03302719,-0.2517764282
0.9874964905,-9.627230072,-3.372636566
-2.056273956,-3.90687561,-1.527872772
-4.533622284,-3.294049988,-3.699257355
-2.204765167,-1.043480072,-5.1226474
-1.127605133,-1.66274231,-7.782615967
-7.569010162,-11.56495056,-8.697513428
-1.819017334,-15.15149231,-3.088377686
-3.635040894,-5.519921265,-4.893024902
-2.598895569,-10.16176849,-0.8533753967
0.1209484863,-10.99164276,-2.041155396
0.6159690857,-8.841963043,-0.7530839539
0.06391708374,-8.92773468,-1.113684082
0.3468287659,-9.267228699,-1.19466568
-0.3685336304,-8.656049652,-0.9051676941
-2.128274231,-9.199868774,-0.6792874146
-0.5065466309,-10.35202286,0.6092330933
0.016615448,-12.87712189,1.712588654
1.08584198,-16.4760878,2.236199799
-2.316582642,-11.04882385,-5.006339264
-3.354823608,-12.34991821,-5.123096466
-2.143093414,-14.18435349,0.8056246948
-0.3041674805,-11.83214493,-2.60817627
-1.48595993,-7.87931488,-2.347418518
-0.8422984314,-3.003204803,-0.8258326721
-1.32459549,-0.1818717957,-1.233734436
-1.693278809,-2.855611725,-4.361031189
-0.9562115479,-5.444777527,-6.390510864
-5.703589325,-8.0794487,-3.898043976
-12.41024277,-16.1722197,-16.21009094
0.5213658142,-6.29620697,-2.135309601
1.940115509,-10.5292543,-5.276826782
1.635948029,-14.95644791,-2.077679443
-0.2342628479,-8.272996216,-1.224902802
-0.4580474854,-10.33495834,0.04595443726
-2.691403198,-8.656199341,-0.4037104797
-1.82066391,-8.248147888,-1.029559021
0.966839447,-10.08887009,-1.685045929
1.143023071,-9.190288696,-0.0137713623
1.084494781,-10.03812561,0.8330177307
0.4502636719,-10.58299255,0.512384491
0.6542893982,-9.161847839,0.5876779175
1.38656662,-10.384655,-0.02574645996
1.951791229,-11.11513596,0.5969586182
0.6360273743,-8.486302643,-1.454076233
0.1889071655,-11.25045456,-2.298470306
-0.7408094788,-14.09947998,1.334025879
-0.999022522,-9.165440369,1.439107361
-3.640878754,-8.683442688,-0.4337979126
