AccX,AccY,AccZ
-1.572929077,-8.269403687,0.9134005737
-2.027533722,-9.684111786,1.010249176
-1.514251099,-10.41294617,0.5328918457
-1.676064606,-10.26460464,0.562230835
-1.863474884,-10.8000412,-0.3161425781
-1.185085602,-11.67287613,0.1919009399
-0.6051914978,-9.516909485,-0.5649252319
-1.107696533,-9.249266052,1.318458252
-2.570604401,-10.47776138,1.690883789
-3.693868561,-10.8305777,2.027982788
-2.665656738,-8.471483459,-2.678529968
-2.850971375,-9.276509399,-0.673150177
-2.841990051,-6.978188782,-1.532213745
-3.204236755,-6.336323547,-3.20139267
-1.753603363,-9.525890808,-3.643573151
-1.909429321,-10.72923843,-5.468128967
-4.191433868,-8.212671661,-3.936963043
-3.567980347,-8.304580536,-0.9220825195
-4.128714294,-13.10240341,-7.458240509
-3.305426331,-4.601730652,0.5843847656
-3.751199341,-11.57812317,-0.4819976807
-1.414558411,-8.797655182,-0.04445755005
-1.520238647,-8.824299774,1.20170105
-1.513053589,-11.00092346,1.066232758
-1.21577179,-9.463320923,0.3493734741
-1.065035248,-8.832083588,0.6414161682
-1.62053009,-9.980046387,0.9213340759
-1.752854919,-8.450077972,0.9062155151
-2.425406342,-9.773925018,1.186881866
-1.784738617,-9.996512146,0.9178912354
-0.4029620361,-11.06154739,-0.7694000244
-1.233884125,-12.05847427,-0.89394104
-0.6057902527,-12.11191315,0.2100132751
-1.241069183,-10.43360321,0.9626481628
-2.71340744,-11.3321846,1.64867157
-3.272045746,-10.41833496,3.303181
-1.877096558,-7.262597351,-1.70360733
-1.959724731,-8.533304901,0.01945953369
-2.701132965,-6.122118988,-0.8903485107
-2.90066803,-7.401807861,-5.104834442
-1.861678619,-10.3249292,-4.555327148
-2.769840088,-11.05600891,-6.213878174
-5.8246875,-8.784632263,-3.136727142
-4.51416275,-7.654781799,2.351460114
-3.159629517,-8.549171906,1.987566833
-2.389181671,-12.36353989,2.099533997
-0.8283773804,-8.662635956,0.6430627441
-0.0904119873,-8.649014282,-0.4436773682
-0.5968089294,-9.372310181,0.6111790466
-1.102607117,-7.97885788,0.8807684326
-2.171085205,-9.237440643,0.7982899475
-1.544338531,-12.18376373,-3.767515411
-1.52113678,-13.2604747,-1.025517426
-1.263372803,-12.48344055,-1.798659668
-1.155447235,-15.66237991,2.257605286
-2.765499115,-11.96940948,3.904330902
-2.897973633,-4.246519318,-1.133892059
-1.529070282,-5.937852173,-0.2324665833
-2.503094788,-4.597689056,0.9550140381
-2.875969391,-11.72871002,-10.33615585
-2.602338409,-13.40282867,-9.573192444
-3.546425171,-6.552024994,-2.354004822
-5.555996246,-10.20562729,2.399210815
-3.667373657,-8.227191467,1.81243103
-2.603984985,-11.33996841,1.861828308
-0.9151968384,-8.094567261,0.7628137207
-0.3439846802,-7.684420166,0.2157014465
-0.6816824341,-9.313183136,0.1761836243
-2.177372131,-11.12501541,-1.511556702
-2.08396637,-12.05637863,-3.203039246
0.7463479614,-13.77435608,0.4848417664
-0.04760101318,-13.88572449,2.410138092
-0.8384065247,-17.3267688,2.581681366
-2.613415375,-11.97509766,4.589007111
-4.810546417,-3.023562469,-0.426612854
-2.884351959,-3.448079681,0.7464976501
-1.627864838,-1.002165985,1.847158813
-3.302731934,-28.60895737,-18.35108871
-1.686991882,-3.222798157,-4.504432983
-5.46543457,-11.64832718,0.03233276367
-4.737498322,-8.551716614,1.220711517
-2.284249878,-8.61997467,1.396296387
-1.785187683,-11.85145477,1.162183228
-0.3233276367,-5.977819061,0.2318678284
-0.5008584595,-9.561067657,-0.4637356567
-1.452729034,-9.031618652,-0.02230361938
-1.988165588,-12.06356369,-6.023324432
0.536484375,-14.51052521,-0.1073268127
-1.941013641,-10.10398865,-9.245074768
-0.5397775269,-15.26914764,2.445614319
-2.464774475,-13.79067215,2.343975677
-3.078947296,-6.265520782,2.858006744
-3.836072845,-3.116369476,-0.6944059753
-3.379971313,-3.948788452,-0.8803193665
-1.484013977,-5.09570343,-0.4278103638
-2.844983826,-19.5509935,-10.40306671
-4.833748169,-5.629343719,-2.003433838
-7.799381104,-9.915530548,2.56252121
-3.232378235,-9.219178619,2.486179962
-2.050436096,-11.70311325,2.064955902
-0.4881349182,-7.439978485,0.3558100891
0.06391708374,-8.597970428,-1.182690582
-1.320254517,-8.651109924,0.4412823486
-1.84057251,-12.07449097,-1.162632294
0.02754272461,-12.29288681,-0.8497828674
0.1549278259,-13.11138474,-5.879024506
0.1249900818,-14.24333084,3.796555023
-1.157093811,-15.4249736,1.417552185
-2.944227448,-8.9500383,3.273991699
-5.225034485,-2.855611725,0.1074765015
-3.299887848,-3.70569397,0.07065307617
-1.072819061,-1.459165649,1.097966766
-4.516258392,-25.80528763,-14.03197037
-3.003803558,-3.904779968,-2.670446777
-7.61137207,-12.05877365,2.508034515
-2.906805267,-8.280929718,2.164498901
-2.550246735,-12.06895248,1.894161072
-0.7893086243,-7.999664612,0.6508465576
0.6448590088,-6.775510254,-5.441035309
-1.038390656,-9.264085236,-0.1240919495
-1.809137878,-10.47551605,1.170416107
-0.1824705505,-12.6858197,-4.28603714
-1.250200195,-13.4715358,-1.438358917
-0.416434021,-13.1794931,2.931204529
-0.6345304871,-16.93338684,1.67441803
-2.168690186,-11.74308014,3.167563019
-3.764671326,-3.463048553,-3.204536133
-3.19899765,-4.037404175,0.935255127
-3.548969879,-2.411036224,0.4876858521
-2.14833252,-19.77058685,-23.69931702
-2.584525452,-8.242010651,-6.080655212
-4.60427536,-11.95114746,-6.122717743
-5.833668823,-7.542814636,2.448308716
-3.416794739,-11.373349,2.356699219
-1.781744843,-10.66232758,0.986149292
0.3351530457,-6.117927704,-3.002606049
-0.3356021118,-8.604706421,0.2856060791
-1.045725403,-9.10331955,1.406175842
-2.516117706,-12.52415588,-0.9583071899
-0.2486329651,-12.42880417,-1.407523041
-0.4194277954,-11.26617188,-5.369633789
0.2450404358,-14.82217712,2.658022614
-1.676363983,-15.45386353,1.237177277
-2.97431488,-8.50306778,4.197271729
-3.589236145,-3.750001831,-1.397643585
-2.614912262,-3.632047119,1.358874207
-1.757345581,-1.667232971,0.5510041809
-4.187392273,-26.1985199,-17.10448105
-4.101470947,-6.233487396,-5.33445694
-4.381239166,-11.02472397,1.140029297
-3.762725372,-7.871680756,2.031575317
-2.887645111,-11.66030228,1.79491745
-0.8665480042,-9.694889374,0.274379425
0.5909710693,-6.077511749,-2.911295929
-0.1384620667,-8.301287384,-0.7786807251
-1.74806488,-10.04306534,1.252146149
-2.082918549,-12.63881744,-5.139861603
-0.6036946106,-14.00517609,-0.2664459229
0.4046086121,-11.43127853,-7.732320557
-0.4495152283,-16.24901001,2.062111816
-2.320474548,-14.61845078,2.235002289
-3.264112244,-6.895111542,3.101400604
-3.530857544,-3.044967957,-0.1901046753
-3.233426056,-2.715054016,0.7529342651
-1.774110718,-3.955225067,-4.613106995
-2.515219574,-15.15119293,-9.579629059
-2.92401947,-4.136797485,-3.803740082
-9.225465546,-13.59547806,3.264261932
-3.321143646,-9.464368744,2.126627655
-2.228565674,-11.58231445,1.318607941
-0.3941304016,-7.289241943,0.0462538147
-0.003592529297,-8.770112457,-0.007933502197
-1.441053314,-8.519683228,0.08741821289
-2.436782684,-11.88648193,-0.9550140381
0.1784289551,-12.78790741,-0.6230044556
-0.5953120422,-14.49645447,-2.874023438
-0.1820214844,-12.9804071,3.806135101
-1.442999268,-15.24370056,1.160536652
-2.952310638,-9.755812683,2.611170044
-5.018613739,-3.732488251,-0.5242098999
-2.08037384,-4.452790375,0.5210664368
-1.976938934,-1.989662476,0.8500822449
-5.176834717,-22.80253189,-21.61400345
-3.100203094,-5.903423767,-5.712121582
-4.548291779,-10.28541138,-1.741328888
-5.009931793,-8.841064911,1.594933319
-2.545905762,-11.0548114,2.347268829
-1.122366028,-10.3407962,0.8807684326
0.7447013855,-5.970035248,-3.007845154
-0.6125262451,-8.437055054,-1.090781708
-1.45557312,-8.96171402,1.073268127
-0.1969903564,-13.37498657,-4.581372986
0.5637277222,-14.93519211,-0.1362167358
-1.604812775,-12.15711914,-2.984793091
-0.5815406799,-15.73138641,2.346819763
-2.835403748,-13.14940567,2.22781723
-3.915258179,-5.285209351,2.2945784
-3.545676727,-3.230731659,-0.7023394775
-2.60458374,-1.401385803,0.2046244812
-3.431464233,-13.00780014,-18.52802078
-1.822160797,-13.34265381,-8.572972412
-5.144951019,-8.714727631,-3.552562408
-6.612349548,-7.341632996,3.122207336
-3.87768631,-10.03483246,2.646197205
-2.12842392,-12.52161118,1.659000092
0.6351292419,-5.645210724,-2.913241882
0.2362088013,-8.501720581,0.3393443298
-1.156195679,-8.997789001,1.253343658
-2.26763443,-11.77855637,0.3492237854
0.2194436646,-13.0799501,-1.557511139
-0.949176178,-12.4681723,-4.433330841
-0.03412902832,-14.68640945,3.338657227
-1.533710632,-16.18030289,1.544637909
-3.149750061,-8.483009491,3.070714417
-4.256698151,-2.990331573,-1.61005188
-3.073109436,-2.148033142,1.480870514
-1.15365097,-1.22864502,1.798210602
-4.243675232,-29.21998672,-13.77690079
-3.225043488,-2.460283813,-2.268682251
-8.858428802,-13.37423813,4.07886795
-3.300935669,-10.65708847,2.854114838
-1.72471344,-11.63395706,1.200952606
-0.08622070313,-6.639293518,-1.666783905
-0.1899549866,-8.183482361,-0.5221142578
-1.191522217,-8.518036652,1.378782806
-1.976938934,-11.196866,1.063837738
0.1826202393,-13.26391754,-3.19555481
-1.177601166,-12.88520508,0.2766247559
-0.5574407959,-12.5663681,1.947450256
-1.627715149,-17.27452744,1.730251923
-2.352807312,-9.612410889,3.959116974
-3.317850494,-5.212310944,-2.224524078
-2.427352295,-3.962110748,0.5544470215
-3.085683289,-0.6848258972,1.299447784
-3.641477509,-25.32837936,-24.7824646
-3.019221497,-5.364694061,-5.929020538
-5.04076767,-15.42347672,-1.185085602
-2.731819153,-5.381758575,1.88622757
-3.628903656,-13.53724915,2.894530792
-1.30109436,-9.075327759,0.6518943787
0.222437439,-8.554261322,-4.499642944
-1.114582214,-8.066725159,-1.228944397
-1.375789032,-8.344098358,1.520388336
-1.775158539,-13.47737366,-4.881947937
-1.174308014,-13.10150528,-1.287322998
-1.907633057,-12.20876175,-4.713847504
-0.9142987061,-16.94925385,2.037263489
-2.313139801,-13.39264984,2.599194946
-3.055296478,-6.230792999,3.10304718
-3.578907623,-3.304528198,-2.294728088
-3.050057373,-2.062261505,1.52113678
-1.005608826,-5.781726837,-4.181105347
-3.031945038,-11.91118057,-7.110064545
-6.612948303,-5.392536163,-3.005001068
-4.085454254,-7.363038483,3.634142761
-3.181783447,-12.35860016,3.234024811
-1.849254456,-12.39153168,1.134191437
0.1083746338,-5.363047485,-4.595294037
-0.8252339172,-8.48076416,-0.9216334534
-1.527573395,-8.982670441,1.502575378
-2.829565887,-12.15711914,-3.406466217
-0.1330732727,-14.10337189,-0.04296066284
-0.540226593,-11.77526321,-4.292922821
-0.6557862854,-15.27259048,3.014431458
-2.62913269,-15.77494583,2.217039642
-3.192710724,-7.779322815,3.223995667
-3.285218353,-2.32616272,-1.600172424
-2.792742462,-3.11592041,1.15140564
-1.847009125,-1.842668152,0.9316625977
-4.412524109,-21.94990494,-11.8245108
-2.707270203,-3.545077972,-2.495011597
-7.569908295,-13.91760818,3.884422302
-3.632496185,-8.138875122,2.019899597
-2.666704559,-11.70401138,1.804946594
-0.7937992859,-8.254584503,0.5108876038
0.8638536072,-8.813222809,-2.534828796
-0.7644602966,-8.11342804,-0.2257305908
-1.419498138,-12.00428696,1.051413574
0.6780899048,-12.16041229,-1.246607666
-1.033001862,-13.14970505,-0.2423460388
-0.2378553772,-12.7362648,2.536625061
-0.5246589661,-17.65907776,1.747316437
-1.769470367,-11.22575592,2.991229706
-2.74379425,-5.853278046,-3.558549957
-2.718646545,-3.412902832,2.337089996
-3.064277802,-0.6764433289,1.00515976
-3.09256897,-15.84724548,-23.21312805
-1.225351868,-6.910379791,-5.715265045
-3.55705307,-17.28605347,-7.823630676
-4.292922821,-5.706882477,2.482587433
-3.662882996,-10.90422455,2.407892761
-2.027683411,-11.19177658,0.9264234924
-0.2764750671,-5.031936035,-1.433419189
-1.172811127,-8.679401093,-0.5071453857
-1.643282776,-8.850345612,1.763782196
-0.7577243042,-13.7183725,-5.892795868
-0.6355783081,-13.31062042,0.06137237549
-3.307222595,-11.34850067,-9.457183685
-0.7249424744,-16.36576721,2.525398407
-2.409838715,-14.24318115,2.91114624
-2.334694977,-6.448141022,3.280578003
-2.461631012,-3.603606262,-1.383872223
-3.042722626,-2.717449036,1.533111877
-1.817969513,-1.553020477,1.403331757
-4.61714859,-23.12541046,-10.62191162
-0.5168751526,-1.328637085,-2.341281281
-5.048850861,-15.69905365,0.2254312134
-3.485352173,-6.579567719,0.9927355957
-3.342998199,-12.25351868,1.619332581
-1.294358368,-8.866661682,0.7264393616
0.2278262329,-7.693102112,-2.891537018
-1.422192535,-8.747359772,-0.3806584167
-2.544708252,-11.29027176,-0.005837860107
-0.2665956116,-12.5265509,-0.2505789185
0.4686753845,-14.81139954,0.9180409241
-1.250050507,-13.00630325,3.121458893
-1.933678894,-16.58431274,1.714833984
-3.33820816,-11.06499023,4.078418884
-3.9362146,-4.328997803,-1.415606232
-1.809137878,-3.63548996,0.7628137207
-2.762655029,-0.7339237976,0.5153782654
-5.090015259,-27.62131119,-23.52882156
-2.059267731,-6.349945221,-7.468868408
-4.99631012,-15.12963776,-2.998414764
-3.320095825,-5.689368896,1.575623474
-3.070564728,-10.66502197,3.110681305
-1.926793213,-11.50432663,1.212029572
0.9005273438,-5.083728333,-6.440057831
-1.087638245,-8.139024811,-1.120270386
-1.139430542,-8.076454926,1.82410675
0.2052232361,-14.93818588,-2.913391571
-0.9479786682,-13.34789291,-1.876647491
-2.861150208,-11.5127092,-6.057752838
-0.7509883118,-16.63161438,2.353555756
-2.160457306,-13.07845322,2.384092255
-3.011886749,-6.756799164,3.460653534
-3.067870331,-3.244353333,-1.555265808
-3.288361816,-2.342778168,1.157991943
-1.782792664,-4.498894501,-1.748663635
-3.749852142,-13.00750076,-7.894882507
-4.612358551,-4.332440643,-1.469793549
-5.293741608,-10.15263748,3.51259552
-3.255879364,-9.942923584,2.596949615
-2.325114899,-12.18316498,1.441352692
-0.02933898926,-5.510191498,-1.19002533
-0.3927832031,-8.908275146,0.2712359619
-1.492246857,-9.550439758,1.16427887
-2.930306396,-12.71021896,-3.398383026
-0.1586700439,-12.90182053,0.5453160095
0.1035845947,-12.40440491,-0.07888595581
0.4010160828,-14.40783875,3.512894897
-2.187101898,-17.87148605,1.420995026
-3.658691711,-8.837472382,3.138523407
-1.605261841,-4.400549011,0.4782554626
-2.349364471,-1.443448334,2.071392517
-2.172731781,-0.1432521057,1.1771521
-4.533023529,-31.84822128,-15.2312764
-2.986589355,-2.915187836,-3.669618988
-3.67171463,-13.85488861,2.243833923
-3.996838531,-6.633305969,1.025367737
-3.475472717,-12.14319809,1.718127136
-1.033899994,-8.139473877,0.5764512634
0.6036946106,-8.385412445,-4.143982544
-0.9517208862,-7.133715363,-0.4273612976
-2.050136719,-11.84217407,0.2769241333
0.3305126953,-12.85227356,-1.197659454
0.08128097534,-14.80196915,0.3095562744
-0.3680845642,-12.61067596,3.169359283
-1.563049622,-16.02911728,1.941313019
-3.357817383,-11.6534166,3.770509186
-3.871100006,-4.170028381,-3.075953522
-2.148931274,-4.115841064,1.09407486
-3.013383636,-0.6959028625,0.6869215393
-5.443130951,-31.1286676,-26.06499756
-0.2601589966,-6.908583527,-6.052962799
-3.116668854,-11.75116333,-3.061733093
-5.680986328,-8.50306778,1.249002686
-3.040926361,-8.386460266,1.365011444
-2.284100189,-12.49421814,1.432071991
-0.1281335449,-5.532644806,0.2944377136
0.3213816833,-8.273744659,-1.076261902
-1.333127747,-8.683592377,0.4887336731
-0.872535553,-13.52796844,-4.435875549
0.1919009399,-14.48627563,0.4552033997
-1.06129303,-11.8298996,-3.861819305
-0.3814068604,-14.9061525,2.637814636
-3.096460876,-15.65504517,2.880909119
-3.259621582,-5.726791077,3.957171021
-2.919079742,-3.321293335,-1.306632843
-3.09720932,-2.021097107,0.209564209
-1.275198212,-0.7551795959,0.8870553589
-3.672762451,-29.03257645,-11.7846936
-2.856509857,-2.861449585,-1.775757294
-7.283703461,-14.14992508,3.825744324
-2.964435425,-6.903045044,2.229613495
-3.361260223,-13.29071182,1.916913757
-0.9538165283,-6.945107574,0.4993615723
-0.1919009399,-10.34064651,-3.425027618
-1.850901031,-7.295079803,-0.04370910645
-1.838476868,-10.898237,0.180075531
0.6062393188,-13.1211145,-1.957030334
-2.266586609,-13.47108673,-6.23887619
-0.2748284912,-13.87300095,3.385360107
-2.033371582,-15.78826813,1.530716858
-3.035387878,-8.879235535,2.520458679
-3.996090088,-3.085832977,-1.180145874
-2.236349487,-3.395089874,2.037712555
-1.080752563,-0.7798782349,1.511856079
-4.294719086,-30.96386032,-12.17328552
-2.06989563,-2.63272522,-4.603227539
-5.63742691,-15.09011993,0.7075785828
-3.299289093,-5.579796753,1.481469269
-3.282823334,-12.30291595,2.586172028
-1.085991669,-8.790320435,0.6732998657
0.3802093506,-8.19530777,-2.99422348
-1.409468994,-8.29589859,-1.133892059
-2.271077271,-11.38697067,0.6782395935
-0.001796264648,-12.13855774,-1.430275726
0.6807843018,-14.78894623,0.9717791748
-1.08120163,-13.00690201,-0.5396278381
-1.503772888,-17.1356163,1.741478577
-3.44239151,-13.27828766,2.608026581
-5.118905182,-3.847449188,-0.2953358459
-1.864822083,-3.464994507,0.9961784363
-1.671873322,-0.366587677,1.473535767
-4.921914825,-25.53569824,-27.62295776
-3.777694244,-4.796026611,-6.657405853
-5.254523163,-9.929152222,1.188378754
-3.238365784,-5.924230499,1.254391479
-2.761607208,-11.62976578,2.976410522
-1.470991058,-10.24020538,1.06129303
0.6352789307,-4.752018127,-4.322411499
-1.035696259,-8.543483734,-0.3293151855
-1.760788422,-10.09725266,1.23448288
-0.6480024719,-13.03010376,-4.008514252
0.136665802,-13.44159805,-0.4514611816
-2.580483856,-13.10315186,-3.522175598
-0.7752378845,-16.75510757,2.301913147
-2.377805328,-13.86821091,3.036735077
-2.778372345,-5.17997818,2.375709686
-3.787424011,-2.845732269,-0.4189787292
-3.48804657,-2.384990387,-0.0347277832
-2.668650513,-8.478219452,-11.06439148
-1.763183441,-15.16661087,-9.700577545
-4.065845032,-7.892637177,-1.827399902
-5.209915924,-7.043602753,2.182910614
-3.947590942,-10.13557297,2.512674866
-2.162253571,-11.86073547,1.442849579
-0.4849914551,-5.514382782,0.1679507446
-0.839304657,-9.488618317,-2.138752441
-1.774559784,-9.198970642,0.6834786987
-0.8946894836,-12.03647003,-4.115391998
0.282462616,-13.48770218,-0.5016069031
-3.197201385,-11.16168915,-11.96102692
-0.4745132446,-14.80226852,3.020119629
-1.837279358,-14.82127899,1.383722534
-3.052901459,-7.704179077,2.437830505
-3.091670837,-3.493135986,-0.6433621216
-2.493365021,-1.838925934,2.094893646
-1.10335556,-2.971770172,-1.154100037
-3.623215485,-14.98458939,-8.94764328
-5.143603821,-8.341853027,-0.5614823914
-4.498295746,-8.242609406,3.117566986
-3.158881073,-13.12455734,4.25445282
-1.974244537,-10.92113937,0.7891589355
-0.1642085266,-4.950505371,-4.989723816
-1.437610474,-8.041876831,-1.684147797
-1.831740875,-7.93784317,1.012195129
-2.059417419,-12.80467255,-1.52697464
-0.7954458618,-13.15524353,-1.088386688
-3.710034943,-12.16744766,-9.56196579
-0.6099815369,-14.73565704,2.809058533
-1.981130219,-14.86349121,2.97431488
-2.516566772,-7.245682526,2.880609741
-3.002606049,-4.12452301,-2.293680267
-3.317850494,-3.816164246,1.37713623
-2.096240845,-1.657203827,1.978286133
-2.856659546,-30.6933728,-16.17147125
-4.348607025,-3.47637085,-3.149450684
-5.567821655,-12.80467255,2.450853424
-3.386856995,-8.507109375,1.689536591
-2.532583466,-12.33764374,1.863025818
-0.3451821899,-8.334218903,-0.4885839844
0.4245172119,-8.288563843,-1.108594666
-0.77927948,-8.493936768,0.3496728516
-1.784888306,-9.557475128,0.4038601685
-0.17902771,-12.94687683,-3.751798096
-0.8747808838,-14.93758713,-0.2971321106
-0.4897814941,-13.81028137,2.574645996
-1.271306305,-15.50086578,1.50242569
-2.829116821,-12.36024673,3.480861511
-4.429289246,-4.660708008,-2.576292572
-2.840792542,-3.246299286,0.9752220154
-2.63976059,-0.6685098267,1.077758789
-4.101470947,-26.701474,-30.5089563
-2.500101013,-5.148842926,-4.721631317
-6.402485962,-8.488697662,-1.30812973
-3.913761292,-8.834478607,2.020348663
-2.1950354,-10.57550812,2.289788361
-1.263971558,-11.28937363,0.9168434143
0.3275189209,-5.44328064,-4.204007721
-1.415606232,-8.218808899,-0.8482859802
-1.375489655,-8.838969269,1.510059814
-0.5137316895,-12.78087204,-5.525908813
-0.3894900513,-13.88048538,0.5026547241
-2.818039856,-11.71224426,-12.23765167
-0.4697232056,-16.16248993,2.367327118
-2.165546722,-14.05651932,2.253264313
-3.084186401,-6.112838287,2.978506165
-2.954106903,-3.731141052,-2.042352905
-2.919678497,-2.514920197,0.5993536377
-2.032922516,-1.330283661,-1.070274353
-4.251908112,-20.95836685,-11.53112091
-3.556154938,-3.09256897,-1.550176392
-6.080355835,-12.20591766,2.677631836
-3.581302643,-9.455986176,1.754052429
-2.115999756,-11.16198853,1.304986267
-0.6947053528,-7.244784393,0.3956272888
0.2595602417,-8.197104034,-2.306104431
-1.504221954,-8.181386719,-0.2857557678
-2.624192963,-12.85122574,-2.715503082
-0.04834945679,-13.04028259,0.3385958862
0.8053253174,-13.16976334,0.4781057739
0.008831634521,-13.32109863,3.695365448
-1.258133698,-16.8568959,1.473535767
-2.76729538,-10.814561,3.878135376
-3.450774078,-3.461252289,-2.39052887
-2.784060516,-3.628005524,0.96414505
-2.84678009,-0.01107696533,1.425335999
-2.912792816,-34.11390976,-21.42255157
-1.274150391,-5.019960938,-4.208348694
-4.266427917,-14.11968796,-0.1451980591
-3.92678421,-7.318431244,1.30468689
-3.683839417,-12.63836838,2.042801971
-1.194815369,-8.556207275,0.5986051941
0.3644920349,-7.958649902,-3.222049713
-0.6542893982,-7.283104706,-0.3755690002
-2.457290039,-11.54683823,0.9645941162
-0.03847000122,-11.77960419,-2.311792603
0.360151062,-15.01796997,0.6020480347
-0.9476792908,-12.40530304,-1.278790741
-1.253343658,-16.44854507,1.793420563
-2.87836441,-11.70880142,3.639381866
-3.0855336,-4.54110672,0.4905299377
-2.042203217,-3.596121826,-0.4619393921
-2.925815735,-1.554667053,1.457070007
-4.248165894,-21.1156897,-29.10098419
-3.201692047,-6.713539124,-5.827980652
-2.973117371,-15.34114792,0.1550775146
-2.715054016,-5.697452087,2.162103882
-4.384532318,-12.44137802,1.995200958
-1.95403656,-8.677754517,0.6915618896
-0.5087919617,-6.085744629,-0.6685098267
-1.804946594,-9.378297729,-1.350341949
-1.997745667,-9.599088593,-0.0687071228
0.06676116943,-13.35642517,-2.651735687
-0.0975970459,-14.83984039,-1.75510025
-0.7045848083,-13.02456528,3.090024261
-3.024310913,-17.0321814,1.556762695
-3.469185791,-10.05713608,2.640209656
-2.297272797,-4.188440094,-1.787433014
-1.306632843,-2.631078644,1.674867096
-1.044527893,-0.1374142456,2.105222168
-4.697381744,-30.25433578,-13.01872742
-1.947150879,-1.913321228,-4.044589233
-7.13401474,-12.19723572,2.98494278
-3.695814514,-9.193731537,2.313888245
-2.660267944,-11.2432695,1.694027252
-1.293909302,-9.359886017,0.1321751404
-0.7430548096,-8.038134613,-2.035317535
-1.064586182,-8.070916443,0.7264393616
-1.764380951,-9.07398056,0.1694476318
0.2794688416,-12.81634827,-1.412013702
-0.4719685364,-15.88840988,-3.572620697
-0.5140310669,-12.88999512,4.106410675
-1.921853485,-16.64613419,1.643582153
-3.395389252,-10.28181885,3.200344849
-5.044659576,-2.838996277,-2.258503418
-2.310445404,-3.203638,1.482966156
-0.5581892395,-0.5953120422,2.251168671
-3.566782837,-32.83287369,-20.1283429
-2.25940155,-1.995650024,-3.875890045
-7.454947357,-16.80555267,-0.2649490356
-2.706521759,-7.377558289,1.810634766
-1.819316711,-11.01200043,2.577639771
-0.6861730957,-8.477021942,0.6875202942
0.2761756897,-6.119125214,-3.68114502
-1.937271423,-10.26565247,-0.8711883545
-2.492766266,-9.88484436,-1.95403656
-0.3769161987,-13.49368973,0.1407073975
-0.1121168518,-13.59532837,-1.01099762
-0.3400927734,-13.14266968,3.572171631
-0.9804611206,-16.75331131,1.684746552
-2.851719818,-11.36601425,3.925437012
-4.509672089,-4.178860016,-0.9205856323
-3.062331848,-3.86481308,0.2173480225
-2.752775574,-0.9731263733,0.4646337891
-5.256469116,-27.47207153,-27.1473967
-1.915716248,-7.979756012,-6.791526947
-5.648653564,-10.86036575,-1.238823853
-3.557801514,-7.489974518,1.463656311
-2.244582367,-9.977801056,2.119891663
-1.387614441,-11.36182297,1.269210663
-0.1600172424,-6.262826385,0.1086740112
-0.786763916,-9.036857758,0.04071533203
-1.944606171,-10.10279114,0.01347198486
0.005538482666,-12.47820145,-2.540966034
0.2947370911,-14.27506485,-0.01811233521
-2.563718719,-12.21953934,-7.034022675
-0.9774673462,-16.65795959,2.148182831
-3.000360718,-13.65101257,3.558400269
-3.130739594,-4.118086395,2.086960144
-2.855911102,-3.090772705,-0.7285350037
-3.039130096,-0.7057823181,0.7679031372
-3.478316803,-23.08589264,-14.42280762
-3.774101715,-9.856104126,-8.700207825
-3.889960785,-7.478298798,-2.404000854
-4.958438873,-9.94921051,3.328628082
-2.989433441,-10.05324417,1.639540558
-1.327888641,-11.11753098,0.7054829407
0.4040098572,-5.698799286,-3.832330627
-0.8032296753,-8.100704498,0.22348526
-1.984872437,-9.868228912,0.637224884
-0.0817300415,-11.86447769,-3.5699263
-0.04071533203,-15.48529816,0.666713562
-1.586700439,-12.11595474,-0.2285746765
-1.447040863,-15.90592346,1.367705841
-3.427722015,-13.02037399,2.128723297
-4.762346649,-4.507277069,-0.3592529297
-1.506317596,-3.545826416,1.001118164
-2.10971283,-0.9250762939,0.9654922485
-4.829556885,-22.73083099,-25.01478149
-3.468886414,-6.795568542,-6.92100769
-4.467160492,-9.130712585,-1.392554169
-4.490362244,-8.64108078,1.879641266
-2.511177979,-10.73597443,2.448308716
-1.390159149,-10.82848206,0.9342073059
0.5733078003,-6.142476654,-4.268673248
-0.3466790771,-7.173682251,-0.7635621643
-1.767524414,-12.03916443,0.5896238708
0.1281335449,-11.82196609,-3.119962006
0.773890686,-15.88496704,1.357377319
-2.226020966,-12.60858032,-0.6762936401
-0.8601113892,-15.45895294,1.881437531
-3.006947021,-13.13907715,3.041824493
-3.314557343,-4.937183075,-1.730102234
-2.802771606,-3.384312286,-0.04430786133
-3.346890106,-1.68609375,0.8512797546
-2.809507599,-21.6306189,-24.67708374
-1.641187134,-9.831555176,-7.181915131
-5.466781769,-9.249864807,-2.047142944
-4.796924744,-8.819360046,1.683848419
-2.14354248,-9.234446869,2.772534485
-0.9413923645,-11.21063736,1.577868805
1.094673615,-5.84579361,-4.560117188
-0.3968247986,-9.329948273,-0.1384620667
-2.668500824,-10.61457687,-2.043550415
-0.8896000671,-12.06491089,-0.2219883728
1.366208954,-14.43208832,0.3755690002
-2.537672882,-12.71920029,-12.99028656
-0.2266287231,-15.07425293,2.748883667
-2.57539444,-15.51748123,2.904260559
-3.937262421,-4.85934494,1.883383484
-2.764002228,-4.199367371,-1.153800659
-3.365601196,-1.573078766,0.603993988
-2.456840973,-6.544839935,-4.014651489
-4.611460419,-12.19199661,-8.383017426
-4.77282486,-9.56076828,-0.3282673645
-3.623514862,-7.890691223,2.445165253
-2.613864441,-10.41354492,2.625989227
-1.905986481,-11.63650177,1.29765152
0.005688171387,-5.323379974,-2.179018707
-1.720671844,-8.636889496,-0.7173083496
-1.714235229,-8.393944702,1.298250275
-0.9412426758,-12.80916321,-4.480033722
0.2603086853,-14.01146301,-0.2874023438
-2.022593994,-12.55798553,-5.205425262
-0.5706134033,-15.24429932,2.737207947
-2.498604126,-15.19684799,3.276536407
-2.975063324,-5.80013855,2.999312897
-2.255659332,-3.487747192,-2.415676575
-2.98254776,-3.373235321,0.9858499146
-1.708397369,-1.336121521,1.646426239
-4.522695007,-30.31675598,-14.70556961
-2.203867035,-2.054328003,-1.348845062
-7.596103821,-13.9731427,2.539169769
-3.180585938,-7.606432343,1.661694489
-2.363734589,-11.37230118,1.707648926
-0.6183641052,-7.73666153,0.4734654236
0.5685177612,-8.421936493,-3.255430298
-1.167871399,-8.33571579,-0.8931925964
-1.579515381,-12.49406845,-0.9788145447
0.5888754272,-12.79419434,-0.1413061523
-0.1507365417,-13.51210144,0.6427633667
-1.35617981,-12.98355057,0.3833528137
-1.534159698,-16.74268341,1.628912659
-2.42555603,-10.88177124,4.730462952
-3.215613098,-4.591701508,-1.9972966
-2.095492401,-3.966002655,0.3266207886
-2.702779541,-0.379460907,0.6321354675
-4.326902161,-26.95444794,-29.92157776
-1.82769928,-7.851772156,-8.984017639
-4.831203461,-13.63903748,-0.03817062378
-3.193908234,-5.388344879,2.07573349
-4.084556122,-14.47265396,3.120860138
-1.413211212,-9.65791626,0.5580395508
0.3294648743,-7.296876068,-3.595373383
-0.6568341064,-7.089257813,-1.012195129
-1.568139038,-8.528514862,1.29765152
-0.6807843018,-15.0003067,-4.529730377
-0.4260140991,-15.53753952,0.2516267395
-2.12138855,-11.98437836,-2.162103882
-1.358275452,-15.31839523,1.58310791
-2.66071701,-12.26684097,3.062032471
-2.830913086,-5.469625854,-2.056573334
-1.690434723,-3.714824982,1.731449432
-2.451152802,-1.146765289,1.483115845
-4.110302582,-14.60333221,-24.00363419
-4.194128265,-8.359216919,-6.08798996
-5.710175629,-9.69294342,1.54104538
-3.66348175,-9.375303955,2.453847198
-1.583856354,-10.16715729,2.421215057
-0.8628057861,-10.70244415,0.4403842163
-0.0260458374,-6.710994415,-2.3237677
-0.6477030945,-7.82437912,-0.5736071777
-1.977986755,-10.31325348,0.7747888184
-0.633482666,-12.19828354,-5.934259644
0.8424481201,-15.98421066,1.159788208
-2.043550415,-11.80909286,-4.934788055
-0.8214916992,-17.28740067,1.663041687
-2.665207672,-13.24864929,3.549119568
-4.155209198,-4.582420807,-0.8238867188
-1.888023834,-3.556753693,0.6697073364
-2.579136658,-0.5983058167,1.312321014
-6.087241516,-21.11718658,-27.43240402
-5.240751801,-6.137686615,-6.727759552
-5.323379974,-11.12456635,1.633553009
-3.443888397,-7.715405731,1.396446075
-1.923050995,-11.0627449,3.002755737
-0.6713539124,-10.48255142,0.9208850098
1.022972717,-6.34066452,-2.554887085
-0.8758287048,-10.15338593,-2.316283264
-1.816322937,-9.430539093,-2.727328491
0.4186793518,-13.06917252,0.3459306335
1.498384094,-14.52369781,-0.7869136047
-1.323697357,-14.10486877,2.364333344
-0.1011895752,-16.21368347,1.640139313
-2.783162384,-11.91567123,2.095193024
-4.544699249,-4.379143524,0.4725672913
-4.250860291,-2.096091156,0.4092489624
-1.999990997,-0.4161346436,1.354533234
-4.448898468,-30.59876953,-32.5831929
-2.767145691,-4.438270569,-5.022355957
-6.417005768,-12.50918701,1.186133423
-3.271147614,-8.262817383,1.415905609
-1.895657959,-10.23047562,2.010319519
-0.8818162537,-9.698631592,0.6700067139
0.7096742249,-6.597081299,-3.441194
-0.7702981567,-8.583899689,-1.449435883
-2.006427612,-11.93153824,-0.938997345
0.5560935974,-13.25987595,0.259410553
1.277144165,-15.29145126,0.8373587036
-0.7107220459,-12.91738815,4.303251343
-1.344204712,-15.36285278,1.044078827
-3.186573486,-9.001531219,3.810027008
-4.690645752,-2.276316376,-1.879042511
-2.513722687,-3.642225952,0.757275238
-1.017134857,-1.027014313,1.485361176
-4.993166656,-28.33263199,-15.71611816
-2.858755188,-1.453477478,-1.990710297
-9.777966614,-16.82022217,2.397414551
-1.510359192,-6.780899048,1.922003174
-1.099763031,-11.3853241,1.95523407
-0.2755769348,-7.771089935,0.3158432007
-0.6872209167,-7.374265137,-0.8137078857
-1.950593719,-9.988279266,0.4388873291
-2.556234283,-12.09544739,-4.155059509
0.6569837952,-13.54967331,0.1469943237
-0.8689430237,-11.37813904,-6.408922577
0.1996847534,-14.92022324,3.484154663
-1.200802917,-15.88796082,1.158590698
-3.469485168,-9.391470337,3.57815918
-5.371280365,-2.282154236,-1.049916687
-2.68646347,-2.912493439,0.4167333984
-1.498384094,-1.138083344,1.917512512
-3.779939575,-26.61989365,-15.61672485
-3.4611026,-2.045795746,-2.964435425
-6.033802643,-14.90315872,2.857258301
-2.367776184,-8.403674469,2.074086914
-2.097887421,-11.02666992,1.544637909
-0.7779322815,-7.627987518,0.3951782227
-0.7129673767,-8.121062164,-3.902983704
-1.790426788,-8.398285675,-0.889151001
-2.51686615,-11.88603287,-0.9093589783
0.1492396545,-13.79007339,-0.1185534668
-0.3432362366,-13.65610199,-0.880019989
-0.2903961182,-13.26466599,3.527414703
-2.023492126,-16.35992935,1.246308289
-2.500101013,-9.35135376,3.817810822
-3.184477844,-3.91046814,-1.546733551
-2.334395599,-3.005749512,1.77156601
-2.133962402,0.01706451416,0.5899232483
-5.450914764,-30.98287079,-13.54203918
-0.1110690308,-2.741698608,-1.132245483
-7.088808746,-13.4953363,2.321372681
-3.409310303,-7.08835968,1.327289886
-2.309846649,-10.7735463,1.887874146
-0.8937913513,-8.683292999,1.024170227
0.4263134766,-8.949439545,-1.890568542
-1.450783081,-9.362281036,-1.699266357
-1.93412796,-11.33188522,-0.9377998352
0.692460022,-12.82128799,0.3981719971
-1.105900269,-12.87038589,-3.527564392
-0.5234614563,-14.41382629,4.275259552
-1.488055573,-16.51800064,1.718426514
-2.880310364,-9.284293213,3.801345062
-4.347708893,-2.906056824,-1.127455444
-3.442990265,-3.27623703,0.5575904846
-1.472787323,-0.4314028931,2.046244812
-3.540138245,-30.42318466,-16.03914642
-3.905528412,-4.069287872,-4.313280487
-7.353009338,-11.69832321,2.813848572
-2.809956665,-8.606652374,2.442321167
-1.904788971,-12.12643295,2.81519577
-0.4716691589,-8.447084198,0.3459306335
-0.1734892273,-7.829318848,0.08472381592
-1.534459076,-9.11499527,-0.7899073792
-2.020648041,-11.85070633,-2.580783234
0.5111869812,-12.85781204,0.2429447937
0.9439370728,-14.56605972,0.9460327148
-1.106798401,-12.69046005,2.134710846
-1.449585571,-16.21158783,1.589095459
-2.747237091,-11.18234619,4.116888885
-3.565435638,-3.608246613,-2.200573883
-2.976560211,-4.897515564,0.1947450256
-3.363655243,-0.8644523621,1.11982132
-3.72320755,-27.3901918,-30.22739182
-1.90718399,-3.444936218,-5.561983795
-5.746100922,-14.10606628,1.851799164
-3.917353821,-9.053473206,1.253792725
-1.793869629,-9.602830811,1.933229828
-0.9740245056,-9.344917145,0.8336164856
0.3165916443,-6.465055847,-1.949994965
-0.9671388245,-8.15668808,-0.6191125488
-1.324745178,-10.2785257,0.9024732971
0.8445437622,-12.9831015,-3.752696228
0.2074685669,-15.33141815,0.3897894287
-3.541485443,-12.47176483,-9.841434631
-1.074016571,-16.43148056,1.941013641
-2.683769073,-12.84658539,3.914509735
-3.248245239,-4.835694122,-0.5691165161
-2.209405518,-3.805236969,-0.5786965942
-3.434757385,-1.355880432,0.8473878479
-2.821931763,-7.477400665,-3.630699921
-3.707190857,-10.41863434,-8.835227051
-5.506299591,-11.01798798,-1.367705841
-4.179608459,-8.375233612,2.503244476
-2.51102829,-10.07794281,2.574346619
-1.574126587,-11.38457565,1.192570038
0.5740562439,-5.494474182,-3.411405945
-0.7873626709,-8.682544556,-0.5593867493
-1.651665344,-9.387728119,1.293759613
-1.650168457,-12.95540909,-2.220482483
0.4793032837,-13.42198883,-0.4159849548
-3.347039795,-11.70760391,-11.40762772
-0.5682183838,-15.50206329,2.894081726
-2.191891937,-15.10449005,3.524121552
-2.867586823,-6.400540009,3.503913574
-2.957699432,-3.307372284,-1.306782532
-3.134032745,-1.886826324,0.6023474121
-1.57727005,-3.647465057,-3.858376465
-2.88539978,-20.81750977,-10.80737595
-4.105961609,-7.08132431,0.02514770508
-6.913672943,-10.68702621,2.403252411
-3.179687805,-9.755513306,2.64320343
-1.64986908,-11.66554138,1.544039154
-0.169896698,-5.828579407,0.1218466187
0.1077758789,-8.448880463,-0.5773493958
-1.48012207,-10.39872574,1.167422333
-1.102457428,-12.97591644,-6.000272369
1.087638245,-13.62571518,-0.03412902832
-3.678600311,-11.01544327,-15.87613541
-0.3881428528,-16.77277084,2.734962616
-2.064806213,-15.08323425,3.560795288
-3.12759613,-5.683531036,2.679278412
-3.2142659,-2.777324524,-1.450034637
-3.540437622,-2.445764008,1.230141907
-1.998643799,-3.718417511,-3.191064148
-3.844006348,-13.91955414,-9.179511108
-3.144960022,-2.900817719,-0.5947132874
-6.319558411,-13.5457814,2.842738495
-2.629731445,-8.246351624,2.076781311
-1.907782745,-11.33966904,1.287622375
-0.2829116821,-6.027964783,0.2832110596
0.0896635437,-9.145232391,-2.28514801
-1.781445465,-8.794062653,0.2618055725
-1.013093262,-13.20703583,-4.372257843
0.4246669006,-13.28816711,-0.1719923401
-1.679657135,-12.14005463,-4.382736053
-0.420176239,-15.67615128,3.161874847
-1.86512146,-14.99012787,3.230282593
-2.831811218,-7.725434875,3.66467926
-3.275787964,-2.856060791,-1.46724884
-3.208727417,-3.862867126,0.5972579956
-1.50706604,-1.041085052,1.632954254
-3.950285339,-27.39483215,-13.21257431
-3.171604614,-2.840493164,-1.767225037
-8.031697998,-14.54929459,3.516637115
-2.484533386,-7.01231781,2.610571289
-2.379451904,-12.87472687,2.016756134
-0.565973053,-7.297025757,0.2335144043
-0.4426295471,-9.238638153,-0.5656736755
-1.857038269,-9.008117523,0.8306227112
-1.302142181,-12.37297028,-3.16397049
0.0260458374,-12.63208145,0.58737854
-0.1845661926,-13.12186295,-0.9804611206
0.02559677124,-13.24026672,3.809278564
-1.900597687,-16.77965652,2.026336212
-2.899171143,-7.892936554,3.095113678
-3.837120667,-2.999312897,-1.205742645
-2.883004761,-3.021616516,1.014889526
-1.279539185,-0.3378474426,1.775757294
-4.13155838,-33.98053711,-17.24698471
-2.715952148,-2.997217255,-3.030148773
-5.102140045,-10.5558989,5.091212769
-3.313060455,-8.536298676,2.418969727
-3.232527924,-12.96229477,2.113305359
-0.6959028625,-6.867119751,0.1670526123
0.04505630493,-9.299112396,-1.844614105
-1.701362,-8.196804657,-0.187559967
-2.162852325,-11.75400742,0.4010160828
0.367635498,-12.55139923,-2.802023163
0.1164578247,-14.84627701,0.9243278503
-0.1749861145,-13.27274918,3.105292511
-2.132016449,-16.17192032,2.028431854
-3.267106018,-9.945617981,3.070564728
-5.235961761,-3.478466492,1.13029953
-2.398013306,-4.439168701,-1.167422333
-1.354533234,-0.9313632202,1.738335114
-4.677024078,-27.99762863,-14.36652466
-3.566333771,-2.783910828,-3.572620697
-8.794811096,-15.81745743,1.240620117
-2.586022339,-7.104675751,2.34247879
-2.398911438,-12.94178741,2.832559662
-0.7523355103,-9.347312164,0.7822732544
0.3701802063,-6.924300842,-2.954256592
-1.202599182,-8.657247162,-1.614093475
-1.203796692,-10.02300705,1.153351593
0.6024971008,-13.28367645,-2.026036835
-0.1907034302,-14.40604248,0.4972659302
-3.067121887,-12.15607132,-7.612419891
-0.5496569824,-17.33440292,1.442999268
-2.231260071,-11.88588318,4.259691925
-2.776725769,-5.473368073,-1.39943985
-2.504741364,-4.311484222,-1.119372253
-4.199517059,-0.826431427,0.1907034302
-1.750310211,-4.188440094,-6.534062347
-2.896027679,-12.63492554,-8.797355804
-3.485052795,-10.6129303,-2.499053192
-6.112838287,-7.455695801,2.592758331
-3.904779968,-10.90078171,2.293979645
-1.73758667,-10.8849147,1.122216339
0.4010160828,-5.334906006,-1.233734436
0.05119354248,-8.011040955,-1.151555328
-1.214873657,-9.414821777,1.085692291
0.9364526367,-12.87906784,-2.895428925
0.08277786255,-14.22027878,-2.481090546
-1.963017883,-12.33030899,-3.628304901
-0.2923420715,-16.7428331,1.990111542
-2.294877777,-15.16032394,2.398911438
-4.376299438,-6.69288208,-0.8102650452
-2.386337585,-3.184178467,1.671723633
-2.437381439,-0.09924362183,0.9918374634
-1.678160248,-6.589297485,-4.729265442
-3.012485504,-11.53336624,-6.839277649
-3.052153015,-3.316353607,0.1167572021
-6.765930176,-13.23517731,1.968256989
-2.377805328,-9.234147491,2.112407227
-1.795366516,-12.02389618,1.237177277
-0.1589694214,-5.88905365,-0.07095245361
-0.7189549255,-8.239915009,-1.17595459
-1.22385498,-8.970545654,1.221310272
-1.909279633,-13.04522232,-3.198698273
-0.05029541016,-14.49301163,-0.009131011963
-3.304079132,-12.64525406,-14.699133
-0.5388793945,-15.1728978,2.427501984
-2.361040192,-14.97051865,3.446433105
-2.428699493,-5.824238434,2.155816956
-2.043101349,-3.582949219,-1.729952545
-2.739303589,-2.113455048,1.311871948
-1.094673615,-3.349584503,-0.8415499878
-2.082319794,-23.06463684,-10.79420334
-3.693269806,-6.662944336,-1.33387619
-5.783223724,-7.515271912,2.826123047
-3.326831818,-9.358089752,2.855162659
-2.334096222,-12.58792328,1.554667053
0.03547622681,-5.154531097,-2.37765564
-1.169817352,-9.006470947,-1.098565521
-1.526375885,-8.635392609,1.674867096
-2.505040741,-12.63612305,0.4019142151
-0.4305047607,-14.01131332,-4.766238556
-1.960622864,-13.33501968,-3.953279114
-0.8346643066,-15.69920334,1.833686829
-3.437900848,-16.11548767,2.512375488
-4.664450226,-5.77903244,-1.579216003
-0.8011340332,-3.85538269,2.080972595
-1.502276001,-1.25903183,1.336420898
-0.5025050354,-1.573378143,1.396146698
-4.288132782,-25.80738327,-8.821006622
-2.997067566,-2.229613495,-0.6691085815
-6.899302826,-14.78834747,3.678600311
-2.981499939,-8.862171021,2.567610626
-2.244432678,-11.94575867,1.643731842
-0.3350033569,-7.181466064,0.3606001282
0.1199006653,-8.776100006,-1.948498077
-0.9921368408,-8.339607697,0.3290158081
-1.480421448,-11.05780518,0.5776487732
0.79215271,-13.75160339,-2.041005707
-1.164129181,-14.14094376,-3.81796051
0.3215313721,-13.55940308,3.813769226
-1.251248016,-15.67540283,1.870809631
-2.573897552,-9.607022095,4.118236084
-3.112627258,-3.745361481,-2.607876892
-2.97551239,-3.33476532,1.776505737
-2.157014465,-0.4546046448,1.125210114
-2.331850891,-33.81034103,-18.88173523
-1.682201843,-2.850971375,-3.788172455
-5.567671967,-17.46373398,1.095422058
-2.88659729,-4.948559418,1.628463593
-3.894900513,-13.87389908,2.464325409
-0.9232800293,-7.477700043,0.5147795105
0.330662384,-8.953331451,-5.069657593
-1.422491913,-7.659122772,-0.5578898621
-1.629062347,-9.429341583,1.678908691
-0.31943573,-12.99657349,-5.398673401
-0.3592529297,-14.73880051,0.209564209
-0.7569758606,-12.02569244,-5.331612854
-1.520987091,-15.94559097,1.525028687
-3.39089859,-12.46966919,3.749852142
-3.440595245,-5.283562775,-4.931494904
-2.331252136,-3.029699707,1.569935303
-1.976938934,-0.5031037903,0.356408844
-2.772235107,-15.8536821,-25.36759781
-1.204994202,-7.288942566,-6.317013702
-5.002447357,-9.653275909,-1.883982239
-5.06995697,-6.521638184,3.269650726
-3.342249756,-13.13892746,3.738176422
-1.729952545,-11.20494919,0.8816665649
-0.1017883301,-5.033582611,-1.458117828
-0.45984375,-9.407337341,0.2339634705
-1.323697357,-7.664361877,1.051114197
-2.089205475,-15.00015701,-6.210734711
-0.9852511597,-14.3407782,0.04355941772
-3.707190857,-12.2744751,-11.37559433
-0.6319857788,-15.86775284,2.371219025
-2.305655365,-14.16249893,2.873125305
-2.085014191,-5.873186646,1.390159149
-1.287772064,-4.028422852,-1.116528168
-2.828667755,-2.188149719,1.286873932
-2.40684494,-1.187330933,-1.039887543
-3.199895782,-21.14308273,-9.563013611
-3.806883545,-7.608977051,-3.163521423
-4.116888885,-6.778054962,4.275109863
-4.863536224,-10.14215927,1.689985657
-2.668800201,-11.76388687,1.567839661
-0.3803590393,-6.322851563,-0.4454736328
0.1161584473,-9.02024231,-0.6167175293
-1.240171051,-8.41999054,0.6008505249
-1.580114136,-11.71793243,-0.8220904541
0.6403683472,-13.79695908,-0.8614585876
-0.5117857361,-13.9319783,-0.7174580383
-0.686023407,-14.0939415,2.902015228
-2.328108673,-15.99798203,1.415306854
-2.589614868,-8.480015717,4.276157684
-2.457589417,-2.739602966,-2.083068237
-1.58310791,-4.194277954,1.880389709
-1.604812775,-1.908531189,1.885928192
-3.94085495,-25.50291641,-13.35956863
-5.183570709,-5.720204773,-5.710475006
-4.631967773,-6.547384644,4.484674072
-4.361779633,-12.49152374,2.744842072
-2.076182556,-11.29416367,1.473685455
-0.07035369873,-7.344477081,-2.794089661
-0.6487509155,-7.507937164,0.3478765869
-1.31636261,-9.165739746,1.106798401
-2.222129059,-11.55701706,-3.230881348
0.1962419128,-15.05179962,0.765358429
0.8539741516,-12.90376648,0.7961943054
-0.3532653809,-12.7057283,2.780467987
-2.448458405,-16.34585861,2.236948242
-2.809657288,-7.9308078,2.923420715
-1.761387177,-3.671864319,0.1703457642
-1.945055237,-1.865420837,1.675914917
-1.119222565,-0.8806187439,-1.213975525
-3.273243256,-20.79161362,-7.584727478
-5.091961212,-5.030888214,-0.06182144165
-9.190737762,-10.85602478,2.742596741
-2.786754913,-10.47671356,3.575913849
-1.408720551,-12.55139923,1.347198486
0.4825964355,-8.287815399,-3.263513489
0.6071374512,-7.666906586,0.3573069763
-0.6264472961,-8.587492218,-1.406325531
1.059047699,-13.91491379,-3.343896332
-0.01975891113,-15.18157974,-1.844614105
-0.1507365417,-13.69876328,3.081941071
-0.615819397,-15.22813293,2.171234894
-2.448907471,-11.78394516,2.455793152
-5.10393631,-5.08402771,0.337098999
-3.302881622,-3.523223419,-1.33971405
-2.50983078,-1.436562653,0.7584727478
-5.476960602,-22.89429108,-25.70784027
-0.2649490356,-8.553662567,-7.361541595
-4.268074493,-9.406439209,-1.485660553
-4.843328247,-7.834108887,1.840422821
-3.462599487,-9.024134216,1.895059204
-2.214045868,-11.36601425,1.246607666
-0.2282752991,-5.622458038,0.09430389404
-0.6384223938,-9.088200989,-2.461331635
-1.550026703,-9.074429626,0.549357605
-0.5942642212,-12.69090912,-5.0138237
-0.1514849854,-14.81633926,0.01631607056
-2.356699219,-13.34340225,-7.832013245
-0.5484594727,-16.75525726,1.651066589
-2.961741028,-14.74568619,3.168910217
-4.058959351,-5.835614777,-2.282154236
-1.03898941,-3.248245239,2.430495758
-2.172582092,0.1519340515,1.93772049
-2.543510742,-4.778363342,-12.27567261
-7.876470795,-20.93262039,-8.041727142
-3.470682678,-4.557722168,-2.617606659
-5.202581177,-10.25831772,3.670068054
-3.437002716,-9.396709442,1.32220047
-2.449655914,-12.41638,1.258582764
-0.02110610962,-6.320007477,-0.5284011841
0.3626957703,-8.585546265,-0.6671626282
-0.8734336853,-8.788374481,0.9996212769
-1.071471863,-12.46263382,-3.114573212
-0.1151106262,-13.27259949,-0.4269122314
-1.725611572,-12.62684235,-5.474715271
-0.08726852417,-16.3645697,2.768193512
-1.828298035,-16.1416832,3.288960571
-2.683320007,-6.758296051,3.655548248
-2.847678223,-3.602408752,-2.590962067
-3.160228271,-2.038910065,1.676363983
-0.8378077698,-0.06691085815,0.8243357849
-2.468217316,-27.95766174,-10.12045441
-3.739224243,-3.045267334,-0.1407073975
-6.995253296,-13.66373611,3.377276917
-2.406994629,-8.490643616,2.843786316
-1.471739502,-11.93213699,2.01016983
-0.2335144043,-7.142397308,0.3079096985
-1.065184937,-8.704848175,-0.4388873291
-1.6217276,-9.013506317,1.038690033
-2.568808136,-11.33233429,-1.373094635
0.5743556213,-14.65617233,-0.5206173706
-0.662971344,-13.1265033,-4.133504333
-0.05119354248,-13.09027863,3.934717712
-2.217638397,-16.42234955,1.760039978
-3.654051361,-7.540419617,3.474424896
-3.834875336,-2.315385132,-1.836381226
-2.106868744,-3.105741577,0.8734336853
-0.4909790039,-0.7548802185,1.371148682
-5.781726837,-31.35709259,-15.50266205
-5.472020874,-2.450703735,-2.832709351
-5.858816528,-12.54960297,5.879473572
-2.425705719,-9.250613251,3.067720642
-1.408720551,-11.79861465,1.703906708
0.6438111877,-6.689588928,-4.870421906
-0.09505233765,-7.427254944,-0.04565505981
-0.9309141541,-8.788374481,1.557511139
-2.607128448,-12.20157669,0.03981719971
-0.01766326904,-12.94582901,-1.807940369
-0.220790863,-13.8138739,0.7888595581
0.2321672058,-13.6308046,3.406765594
-1.224004669,-17.24279343,1.710942078
-2.438728638,-9.056916046,3.847748566
-4.064647522,-3.285817108,-1.666634216
-2.419269104,-2.725232849,1.465452576
-0.5795947266,-0.3709286499,1.861229553
-2.607727203,-29.32761292,-9.51870575
-3.265609131,-4.012406158,-4.620441742
-8.32284256,-12.31908234,2.948418732
-2.893782349,-7.344327393,2.36238739
-2.081721039,-12.86035675,3.014281769
-0.7384144592,-8.725954285,0.4456233215
-0.8217910767,-9.235644379,-0.5641767883
-0.9821076965,-7.528145142,1.447190552
-2.185455322,-12.8968808,-1.196012878
0.2960842896,-13.90219025,-0.3606001282
-0.9476792908,-14.46127762,-3.880680084
0.01062789917,-13.68439316,3.503015442
-1.6907341,-15.54906555,1.686991882
-3.377127228,-8.386759644,2.878963165
-4.295018463,-2.313888245,-2.065105591
-2.375559998,-2.997366943,1.987866211
-0.803379364,-1.099313965,1.475781097
-4.223616943,-23.23348572,-11.29446304
-4.589007111,-3.933370514,-2.28874054
-5.101241913,-13.00735107,4.050277405
-3.080743561,-8.444389801,2.092199249
-2.414179688,-12.78251862,1.943708038
-0.2387535095,-8.372090149,-1.039737854
-0.4574487305,-7.973169708,-0.4499642944
-1.396146698,-9.097182312,1.213825836
-2.095342712,-10.33480865,-2.545307007
0.100740509,-13.62346985,-0.110919342
-1.851499786,-13.27289886,-10.82908081
-0.4956193542,-14.61006821,2.971470795
-2.222428436,-15.11721359,3.231180725
-3.781137085,-8.352780304,2.785856781
-2.574645996,-3.943848724,-3.090922394
-2.647245026,-2.683918762,1.604812775
-1.821112976,-0.7590715027,1.708996124
-2.532733154,-27.08198273,-13.08054886
-6.298003235,-4.994813232,-2.854863281
-4.248315582,-9.432934113,5.169649658
-2.483335876,-10.20877075,2.677482147
-1.664388885,-13.58470047,1.372046814
0.1904040527,-7.150181122,-6.272705841
-0.09116043091,-6.747668152,0.08143066406
-0.8611592102,-6.981332245,1.131646729
-1.941462708,-11.26482468,1.009500732
-1.61469223,-12.13556396,-8.241561584
-0.6261479187,-15.59067902,1.041234741
-1.819765778,-11.72736282,-6.571035461
-0.9665400696,-15.67615128,1.496438141
-3.004851379,-13.29729813,4.196373596
-2.692900085,-4.849166107,3.649860077
-1.404678955,-3.995042267,0.1685494995
-2.582579498,-0.9800120544,0.6274951172
-3.964655457,-10.57416092,-17.62330215
-2.613714752,-10.28122009,-9.316775665
-5.226381683,-11.83139648,-3.878434753
-4.734055481,-6.950646057,1.778002625
-3.38506073,-10.56488022,2.352358246
-1.321901093,-11.06349335,1.644180908
0.1844165039,-6.579567719,0.1636097717
0.3790118408,-8.745862885,0.08696914673
-1.370250549,-10.27164001,-0.486638031
0.03622467041,-12.48164429,-2.498753815
1.515747986,-14.22012909,-0.4652325439
-3.431314545,-11.76373718,-14.93369522
-0.2424957275,-15.69935303,2.60697876
-1.824406128,-14.30275726,2.274370422
-3.295696564,-6.768025818,2.988834686
-3.372786255,-2.721939697,-2.053878937
-2.639161835,-3.663781128,1.312919769
-1.820214844,-7.237599335,-5.136867828
-4.615502014,-13.23981766,-8.734935608
-4.945266266,-6.12077179,-2.865042114
-4.897216187,-8.040379944,3.18492691
-2.875520325,-10.92398346,2.383643188
-1.384321289,-11.50836823,1.479972382
0.6737489319,-6.035449219,-3.112627258
-0.6236032104,-7.663763123,-0.4863386536
-1.395398254,-9.20974823,1.326990509
-2.820135498,-12.91499313,-2.727777557
0.5936654663,-14.27671143,-0.4685256958
-0.3097059631,-12.17253708,-3.029100952
-0.03951782227,-13.96790359,3.357368317
-1.742676086,-16.22371262,2.428250427
-2.96727951,-8.770561523,3.904031525
-3.253634033,-2.843936005,-1.540296936
-2.671195221,-2.503394165,0.5381309509
-1.700912933,-2.301464081,0.7568261719
-3.15693512,-25.63000214,-13.20703583
-3.383713531,-2.966980133,-0.5571414185
-6.259084167,-12.9539122,2.627635803
-2.994373169,-10.10683273,1.934726715
-1.570534058,-11.20764359,1.169817352
0.1610650635,-6.585555267,-0.8812174988
-0.1387614441,-7.584128723,-0.550405426
-1.396895142,-9.198521576,0.5947132874
-3.065774689,-13.91087219,-1.434916077
0.2751278687,-13.38082443,0.002844085693
-0.02829116821,-11.51884644,-4.497696991
-0.3336561584,-14.62309113,2.575244751
-1.951940918,-15.54397614,0.9193881226
-3.340004425,-8.535999298,3.584895172
-3.774550781,-2.370320892,-1.461860046
-2.53437973,-3.392844543,1.569336548
-1.976489868,-1.412612457,-0.06032455444
-4.208947449,-24.71106308,-11.4224469
-3.043920135,-6.420897675,-0.4400848389
-5.340893555,-11.79352524,1.839225311
-2.824775848,-8.674910431,1.79491745
-1.8791922,-12.23405914,1.20873642
-0.3945794678,-7.357200623,0.250279541
0.2399510193,-7.167095947,-2.49695755
-1.643282776,-9.739346924,0.5065466309
-2.551743622,-11.79442337,-0.7102729797
0.2980302429,-13.93706772,-0.5704637146
-2.408192139,-11.92989166,-8.614585876
-0.356408844,-14.25635376,2.951412506
-1.800306244,-16.38328079,1.882485352
-2.533930664,-7.015311584,3.369642792
-2.673739929,-3.703897705,-1.905687103
-2.693648529,-1.57607254,1.798210602
-2.190544739,-3.392395477,-2.533631287
-2.974464569,-21.16793106,-10.43809387
-3.712130585,-3.862867126,0.333356781
-5.967041473,-11.89381668,2.069596252
-2.271825714,-11.03729782,2.667153625
-0.9681866455,-11.03879471,0.9460327148
0.3143463135,-5.91015976,-3.474424896
-0.7270381165,-7.972870331,-1.022823029
-1.06129303,-8.832083588,1.502126312
-3.153192902,-12.9539122,-4.186793518
0.1553768921,-14.98818192,-0.9656419373
-2.625390472,-13.00675232,-11.28802643
-0.4830455017,-15.10104721,1.92484726
-1.854493561,-14.11804138,2.943329315
-2.989134064,-6.174959106,2.781964874
-2.347119141,-3.485950928,-1.101858673
-2.925067291,-1.450034637,1.325792999
-2.358495483,-6.904092865,-6.040388947
-4.439617767,-12.04560104,-7.755971375
-6.768025818,-8.025411072,0.5972579956
-3.357368317,-9.389225006,2.523302765
-2.066452789,-11.03370529,2.508782959
-0.933608551,-10.65993256,0.5153782654
0.07843688965,-5.904920654,-4.799170074
-1.164428558,-8.312214661,-1.184786224
-1.338217163,-8.558602295,0.4270619202
0.08038284302,-13.57931168,-3.763473816
0.07529342651,-15.83871323,-0.3600013733
-2.039808197,-12.41817627,-0.8514294434
-0.6994953918,-15.4781131,1.844913483
-1.897005157,-12.74644363,3.973936157
-2.655178528,-4.689897308,0.8702902222
-2.299967194,-3.979175262,-1.694925385
-3.478167114,-1.221909027,1.192420349
-2.866389313,-25.31251236,-28.74233002
-2.412233734,-8.285121002,-5.912105713
-5.433999939,-10.10982651,-0.4706213379
-3.558549957,-8.791667633,1.90957901
-2.400258636,-11.03235809,2.609972534
-1.284927979,-10.08168503,0.6375242615
0.1335223389,-6.610403595,-5.199138336
-1.892664185,-8.363707581,-1.913919983
-1.043929138,-8.38481369,1.044378204
0.5638774109,-14.25066559,-4.272265778
-0.4631369019,-14.82816467,-0.5830375671
-2.131417694,-12.29109055,-1.268761597
-1.038839722,-16.30005386,1.806443481
-2.520159302,-12.11056595,3.576512604
-3.529510345,-5.013674011,0.0390687561
-2.317181396,-4.028273163,-0.1410067749
-3.297642517,-1.007704468,1.813329163
-3.760180664,-23.62462234,-31.47819077
-3.462000732,-5.658832397,-5.771697693
-5.653293915,-9.747430115,0.9151968384
-3.360362091,-9.018146667,2.039957886
-1.964963837,-10.81755478,2.151475983
-0.9857002258,-9.581425323,0.2649490356
0.5105882263,-7.2486763,-4.016298065
-0.9382489014,-7.345524902,-0.4489164734
-1.97155014,-10.3262764,1.19586319
0.597557373,-12.88071442,-5.103038177
0.1678010559,-15.12080612,1.235830078
-2.222877502,-11.96177536,-5.273982697
-1.036444702,-17.76595551,2.027234344
-2.30505661,-11.25584335,3.834575958
-3.484154663,-4.514761505,0.7964936829
-2.451751556,-4.33872757,-0.5469625854
-1.974543915,-0.5152285767,2.971919861
-4.434528351,-23.93627426,-24.27771423
-4.374054108,-4.973108368,-6.75844574
-7.164251862,-11.99350937,0.2821632385
-2.654579773,-9.770781555,2.768642578
-0.9590556335,-10.85587509,2.249222717
-0.0375718689,-9.441765747,0.349972229
0.2094145203,-8.228239288,-1.132993927
-0.8608598328,-7.931705933,0.4752616882
-1.849254456,-10.36654266,0.3763174438
-0.5460644531,-12.27627136,-2.388882294
0.7553292847,-15.09580811,1.295406189
-2.428549805,-12.32027985,-5.675896912
-0.9735754395,-18.3048349,1.701062622
-2.271376648,-10.63822769,4.525239716
-3.197500763,-4.26148819,1.155596924
-2.417023773,-4.085304565,-0.5921685791
-3.586691437,-1.386416931,0.5810916138
-6.234086151,-13.85473892,-23.15819229
-2.408192139,-7.493567047,-7.64999176
-4.576732635,-9.506431274,-0.9147477722
-5.131628723,-9.826914825,2.239043884
-2.333497467,-9.60642334,2.580932922
-1.107995911,-11.29161896,1.21217926
0.9636959839,-5.703140259,-4.07662262
-0.3586541748,-8.107739868,-1.200054474
-1.213676147,-8.371491394,1.323248291
-0.2044747925,-13.93302612,-4.358935547
0.3758683777,-14.81364487,-0.09131011963
-3.926185455,-12.90690994,-12.17253708
-0.4611909485,-17.48873199,2.149679718
-2.078427887,-14.68102066,3.999532928
-2.661016388,-4.527784424,2.587369537
-3.265309753,-2.828069,-0.4436773682
-3.935466156,-1.435514832,0.9909393311
-1.154998169,-5.169949036,-8.377029877
-4.711153107,-12.20232513,-7.564968567
-3.965852966,-2.202669525,-1.126557312
-4.908592529,-11.09238327,3.042123871
-2.474204865,-10.25487488,2.186054077
-1.60541153,-12.26953537,1.077908478
0.5525010681,-4.607119446,-3.988156586
-0.4567002869,-8.093369751,-0.7725434875
-1.159488831,-9.013506317,1.691482544
0.3465293884,-13.92554169,-6.506519623
0.8324189758,-15.09131744,0.5581892395
-1.942211151,-12.42880417,-4.31881897
-0.5174739075,-15.31989212,2.44426712
-2.553240509,-15.87733292,3.388503571
-2.740650787,-6.179449768,3.052302704
-2.64320343,-3.102897491,-0.7658074951
-2.864742737,-1.976340179,1.051114197
-0.772842865,-0.4861889648,0.7643106079
-5.798641663,-25.5720726,-9.065298615
-3.824397125,-0.4665797424,-2.259251862
-8.83298172,-16.06848541,4.336482239
-2.173480225,-10.1735939,2.368824005
-0.8855584717,-11.16453323,1.047671356
0.4703219604,-5.98964447,-3.276985474
-0.07439529419,-7.904163208,-0.8952882385
-1.279539185,-9.620643768,1.207089844
-1.553768921,-12.10472809,-5.457052002
0.7628137207,-13.8285434,0.6396199036
-0.3155438232,-12.38629257,-0.4236190796
-0.4483177185,-13.98032776,3.292403412
-2.233505402,-16.9711084,2.279010773
-2.938539276,-7.426057434,3.894301758
-2.552641754,-2.722388763,-1.79371994
-2.528092804,-4.095633087,1.425934753
-1.05306015,-0.8250842285,1.694925385
-5.112318878,-27.58044617,-11.37140305
-4.584666138,-0.9800120544,-3.491339722
-6.673123169,-14.61830109,4.410727844
-2.352358246,-9.986483002,2.387834473
-1.313219147,-11.95488968,1.758543091
0.09116043091,-7.86883667,-2.139949951
-0.02380050659,-7.596552887,-1.039887543
-0.9128018188,-7.387737122,0.68332901
-1.43446701,-11.36242172,0.5748046875
0.9413923645,-13.51075424,-1.793121185
-0.3484753418,-15.07634857,0.6429130554
-1.48715744,-13.21586746,-1.839225311
-0.9370513916,-16.42055328,1.511107635
-2.312840424,-12.67549118,5.267396393
-3.309617615,-4.379143524,-3.216211853
-2.308050385,-4.010160828,-0.4324507141
-2.683769073,0.1779798889,0.9527687073
-3.735482025,-33.58266449,-34.63677246
-4.580774231,-6.177803192,-6.128256226
-6.707701263,-12.40889557,0.4927752686
-2.740501099,-8.523126068,2.31673233
-1.901495819,-11.95518906,2.669997711
-0.01002914429,-9.203610992,-1.770967255
0.1151106262,-5.780978394,0.01047821045
-1.185834045,-8.448880463,-0.1932481384
-2.360441437,-9.889035645,-0.1019380188
-0.4026626587,-13.30882416,-4.860392761
0.8445437622,-14.94132935,0.606688385
-2.985840912,-12.97067734,-9.687554626
-0.2989283752,-16.35094803,2.046244812
-2.417472839,-15.0733548,4.360582123
-2.873424683,-4.041296082,2.116149445
-3.267555084,-2.947370911,-0.7542814636
-3.599115601,-0.7613168335,1.409319305
-4.489015045,-9.652826843,-22.61601974
-6.027366028,-15.37378006,-8.605604553
-6.596632233,-7.367080078,-1.760339355
-2.695444794,-7.381599884,2.785557404
-2.340233459,-11.99635345,3.427722015
-0.9439370728,-11.1557016,0.8881031799
0.1604663086,-6.349945221,-1.82530426
-0.4722679138,-7.945477295,-0.979712677
-1.15844101,-8.297245789,1.489253082
-2.150128784,-14.59360245,-10.28211823
0.2692900085,-14.74433899,0.8656498718
-2.700983276,-10.65559158,-9.483678589
-0.5135820007,-16.95284637,2.087858276
-2.070045319,-14.8450795,3.877237244
-2.217039642,-5.759423218,2.74738678
-2.378254395,-3.764671326,-0.5664221191
-3.644022217,-1.203197937,0.6520440674
-2.907553711,-2.111808472,-0.3116519165
-4.650080109,-17.33096008,-10.22164398
-3.07385788,-5.462291107,-0.632434845
-6.962321777,-11.73679321,3.858675842
-3.069367218,-9.68007019,2.742896118
-1.790576477,-12.30171844,1.444645844
-0.05298980713,-5.550457764,-0.3031196594
-0.1700463867,-9.153764648,0.1204994202
-1.457818451,-9.210047607,0.6950047302
-2.020049286,-12.1708905,-4.00641861
0.786763916,-14.25530594,0.1930984497
-1.895657959,-12.03706879,-9.432335358
-0.1957928467,-13.93257706,3.822900238
-1.864522705,-16.89207275,2.686164093
-2.874173126,-5.993386688,2.402503967
-3.602109375,-2.50519043,-1.274749146
-3.517984314,-2.347418518,0.8970845032
-1.523531799,-2.160906372,-0.9627978516
-2.902314606,-24.50748642,-9.931098175
-4.752018127,-2.404749298,-2.470762024
-5.672903137,-12.65468445,3.195255432
-2.654430084,-9.766440582,2.489323425
-1.454824677,-11.53067184,1.365310822
0.1845661926,-6.331982574,-3.35931427
-0.6746470642,-7.514673157,-0.8747808838
-1.436562653,-9.144933014,1.413959656
-2.241289215,-12.94762527,-3.743864594
0.1526824951,-13.3600177,0.230969696
-0.5586383057,-10.72055649,-1.666035461
-0.04056564331,-14.85271362,3.209775238
-1.772763519,-15.51284088,3.340303802
-3.139421539,-8.731792145,4.1432341
-3.581302643,-2.888842621,-1.415905609
-2.139051819,-4.660857697,0.5834866333
-2.136207733,-1.367107086,0.326920166
-4.780908051,-27.61697021,-13.11258224
-2.822829895,-3.586242371,-4.80321167
-6.222410431,-12.11161377,2.384990387
-2.883603516,-8.574618988,2.249821472
-1.942660217,-12.37895782,2.773881683
-0.2589614868,-8.797206116,-0.1829196167
-0.04445755005,-7.132966919,0.6929090881
-1.430126038,-9.631421356,-0.02739303589
-2.349963226,-11.24297012,-1.228345642
0.4270619202,-13.23622513,0.03592529297
1.066532135,-14.06430313,0.3035687256
-0.4445755005,-13.57062973,4.071533203
-1.791624298,-17.08636871,1.493294678
-3.451821899,-9.429640961,4.033961334
-4.496349792,-2.44202179,-0.2555186462
-2.354902954,-3.138074341,-0.02050735474
-1.372944946,-0.6246510315,1.191222839
-4.348756714,-32.32348297,-13.40701996
-3.447480927,-2.436932373,-3.670666809
-8.574768677,-11.70221512,2.230511627
-2.607727203,-10.19664597,3.083887024
-1.56559433,-11.75879745,1.710942078
0.4502636719,-7.059619446,-3.096760254
0.1290316772,-7.194339294,0.5424719238
-1.017284546,-8.774902496,0.2365081787
-2.335593109,-11.6414415,-1.095721436
0.4032614136,-12.88146286,0.09969268799
1.165476379,-14.48043777,0.9246272278
-0.2670446777,-12.75512558,3.60270813
-1.754052429,-17.37886047,1.703008575
-2.664010162,-10.31220566,4.192182312
-3.884871368,-3.222049713,-1.317709808
-2.614762573,-3.314707031,2.23140976
-1.785337372,-0.2112107849,2.310445404
-5.26649826,-32.42332535,-20.14855087
-2.329904938,-1.904788971,-3.181633759
-6.112987976,-14.70212677,3.135379944
-3.697311401,-8.884624329,1.936073914
-1.866169281,-10.79120956,2.538421326
-0.6289920044,-9.27411438,0.6893165588
0.6298901367,-8.299491119,-2.3927742
-0.8047265625,-7.330256653,0.0462538147
-1.591640167,-11.82675613,0.444276123
0.7137158203,-12.95885193,-2.209405518
0.3784130859,-15.01916748,1.468895416
-2.698887634,-12.6009462,-6.187832336
-0.9738748169,-17.07753708,1.460363159
-2.655627594,-12.29453339,4.230352936
-3.943699036,-3.326382751,-2.761307831
-2.243684235,-3.432661743,1.109043732
-1.954934692,0.4650828552,2.180964661
-2.390079803,-33.97993835,-27.45365982
-4.098028107,-5.464237061,-5.304369507
-6.971303101,-15.48799255,0.1794767761
-2.088906097,-7.074588318,2.23021225
-2.075583801,-13.39729019,2.786904602
-0.1332229614,-8.619675293,-1.746867371
-0.07469467163,-6.146218872,0.2739303589
-1.019230499,-9.29162796,0.1471440125
-2.340682526,-10.54751633,0.489332428
0.1254391479,-12.86424866,-2.424059143
0.8958869934,-16.00007767,1.673669586
-1.996847534,-11.79577057,-2.803070984
-1.266516266,-17.3095546,1.207389221
-2.248025208,-12.20232513,3.724255371
-3.085832977,-3.606001282,-1.337019653
-1.791025543,-3.426075439,1.071920929
-2.547103271,-0.06376739502,1.490001526
-3.187770996,-31.75286957,-22.07609253
-4.13979126,-4.040847015,-4.372108154
-6.415808258,-12.40934464,1.617536316
-2.800526276,-8.937913513,2.692451019
-1.445693665,-11.90055267,2.712060242
-0.106129303,-8.390202484,0.255668335
0.07604187012,-7.47680191,-0.05224136353
-1.079854431,-8.25263855,-0.03248245239
-2.52973938,-11.76912598,-3.542383575
0.1739382935,-13.18113968,0.02080673218
0.9735754395,-14.75017685,-0.2643502808
0.1615141296,-12.80272659,4.235592041
-1.192869415,-15.86266342,1.210532684
-2.906206512,-10.3660936,3.036884766
-3.349883881,-3.064726868,-2.428849182
-1.519789581,-3.183130646,2.917433167
-1.76213562,-0.03382965088,1.636247406
-4.692442017,-32.42991165,-20.74715607
-1.832639008,-3.095712433,-3.871100006
-5.596112823,-12.49421814,2.080673218
-3.84026413,-8.482710114,2.092648315
-2.639610901,-12.11909821,2.81519577
-0.3797602844,-8.073311462,0.04385879517
0.4385879517,-8.810229034,-2.33903595
-0.8436456299,-7.741750946,0.03817062378
-1.544338531,-9.655221863,1.444196777
1.288969574,-14.16863617,-7.614665222
-1.099164276,-15.09520935,0.04326004028
-2.095342712,-12.11266159,-0.6780899048
-1.068029022,-16.21098907,1.222358093
-2.128872986,-12.4934697,3.953578491
-3.257975006,-4.447102203,-3.568579102
-1.579814758,-3.767216034,1.474583588
-1.869911499,0.1681004333,1.177601166
-3.98411499,-25.9623111,-33.85240356
-2.28050766,-4.911885681,-6.843019867
-5.873186646,-11.89875641,4.152215424
-3.420536957,-7.251221008,2.183509369
-2.591111755,-12.44781464,3.837420044
-0.03218307495,-9.020990753,-1.784289551
-0.002694396973,-8.133037262,-0.2745291138
-0.8312214661,-7.218139801,0.6198609924
-2.362088013,-10.84898941,0.570763092
0.05957611084,-12.76455597,-4.519252167
0.2710862732,-15.57436295,1.356778564
-0.329614563,-13.10375061,2.001637573
-0.9044192505,-16.63745224,1.816472626
-2.652334442,-11.64204025,3.079845428
-4.350253601,-3.049009552,-1.53865036
-2.092798004,-3.669469299,1.318907318
-1.19346817,-0.1408570862,2.74499176
-3.022814026,-32.30926254,-21.81743042
-4.375700684,-1.94116333,-4.438420258
-5.80597641,-13.43980179,0.559536438
-2.476300507,-7.404053192,1.399739227
-1.513802032,-11.09702362,2.003284149
-0.6261479187,-10.26220963,0.5125341797
0.2577639771,-6.43077713,-2.104473724
-1.19227066,-8.155939636,0.01571731567
-2.033072205,-9.85326004,1.372944946
0.4547543335,-13.27828766,-7.751181335
-0.04221221924,-15.48933975,1.045426025
-2.296973419,-11.99036591,-5.335804138
-0.9110055542,-17.23500961,1.331930237
-2.143991547,-11.33517838,3.826043701
-2.822829895,-4.622687073,0.3835025024
-1.797761536,-3.948788452,0.4119433594
-2.33319809,-0.7435038757,1.534309387
-5.678740997,-14.67533249,-27.14260666
-3.415297852,-7.059020691,-7.639812927
-4.736749878,-13.80264725,-3.35108139
-3.80867981,-6.323300629,2.107916565
-3.240910492,-13.31825455,3.482358398
-0.8131091309,-9.998907166,0.6753955078
0.6960525513,-6.325695648,-3.784130859
-0.2213896179,-6.931934967,-1.402283936
-1.323697357,-9.79592926,1.265917511
-1.008303223,-13.99020721,-8.605604553
0.999022522,-15.13397873,0.8514294434
-3.383264465,-12.423116,-11.81088913
-0.3427871704,-16.7348996,2.240391083
-2.484533386,-14.77712082,3.833977203
-2.930755463,-4.705914001,1.810485077
-2.311343536,-2.83630188,-1.634151764
-3.295846252,-1.203796692,1.688788147
-2.122286682,-7.934849396,-16.78908691
-4.178710327,-16.2027562,-9.041498108
-5.236410828,-5.956263885,-2.021546173
-5.138364716,-7.562723236,3.424129486
-3.88696701,-10.81306412,2.617756348
-1.877246246,-12.45993942,1.462907867
0.6583309937,-5.741909637,-2.711311798
0.3008743286,-7.759414215,0.01930984497
-0.8608598328,-8.84705246,1.246907043
-1.751956787,-13.55266708,-4.842729492
1.098266144,-14.44975159,0.4749623108
-0.1568737793,-12.6141188,-1.117575989
0.107177124,-14.27880707,3.018922119
-1.865570526,-16.69762711,2.00552948
-2.958896942,-6.812034302,3.561843109
-3.549868011,-2.61865448,-1.369202728
-2.663261719,-2.501148834,1.537003784
-1.27774292,-0.6987469482,0.9702822876
-3.909120941,-24.94293091,-12.39736954
-5.969137115,-5.751190338,-3.180735626
-3.857178955,-9.827812958,4.891228638
-3.728895721,-9.49056427,1.848206635
-2.341430969,-12.3912323,2.403551788
-0.1303788757,-8.259075165,-0.4670288086
0.4275109863,-7.589367828,-0.3110531616
-1.063388672,-8.27958252,0.6994953918
-1.964814148,-11.20330261,0.382155304
0.5307962036,-12.9804071,-0.9033714294
0.7906558228,-15.81221832,1.056203613
-0.5995033264,-13.06707687,2.884351959
-1.792821808,-16.26592484,1.321452026
-2.734363861,-11.02143082,4.313729553
-3.205434265,-3.160078583,-2.284698944
-1.400337982,-2.881208496,1.61124939
-1.651216278,-0.5370831299,1.570983124
-4.263134766,-32.97777237,-17.55220001
-3.726201324,-3.350931702,-4.901407471
-5.435796204,-13.45087875,2.583926697
-3.163371735,-8.243806915,1.708247681
-2.362237701,-11.86387894,2.316283264
-0.6773414612,-9.295669556,0.4315525818
0.1448986816,-7.389683075,-0.1359173584
-0.6620732117,-8.001311188,-1.165775757
-2.007475433,-11.45747406,-0.08038284302
0.6390211487,-12.80616943,-0.3685336304
1.501826935,-15.2166069,0.8448431396
-0.6021977234,-12.90960434,2.649939423
-1.184786224,-17.17064346,1.178050232
-2.508932648,-11.46391068,3.58863739
-3.72904541,-3.044818268,-1.433419189
-2.410886536,-3.377875671,1.327439575
-2.293530579,-0.1853146362,2.072140961
-3.486399994,-32.32797363,-25.92758331
-4.423301697,-3.687581635,-4.837789764
-4.839735718,-13.09177551,3.279230804
-2.666405182,-8.11223053,1.671873322
-1.814975739,-11.59294235,1.976190491
-0.1785786438,-8.704548798,-1.102906494
0.3480262756,-6.540349274,-2.309397583
-1.200952606,-8.738677826,0.2387535095
-2.133962402,-9.929900665,0.7307803345
0.4153862,-12.73521698,-7.550299072
0.1883084106,-15.66821777,0.9569599915
-2.268981628,-12.323573,-4.102967834
-0.7930508423,-17.29204102,1.847158813
-2.269730072,-13.05360489,3.920497284
-3.581901398,-4.32226181,-1.493743744
-2.117197266,-3.829935608,-0.580941925
-2.716251526,-0.5028044128,0.7926017761
-3.960913239,-17.66551437,-30.11183212
-4.63121933,-11.87136337,-7.879913635
-6.929390259,-6.828949127,-4.204456787
-2.657723236,-7.41243576,2.781515808
-3.447480927,-13.79516281,3.183879089
-1.006357269,-10.85362976,0.4382885742
0.2285746765,-6.823410645,-2.408491516
0.1050814819,-6.81921936,0.2070195007
-1.002914429,-8.948242035,1.305435333
-0.8261320496,-13.59398117,-7.812404022
0.1164578247,-14.37909851,0.1184037781
-3.810176697,-10.23107437,-11.30838409
-0.1121168518,-16.39899811,2.521057434
-0.8092172241,-17.01826035,3.625460815
-1.614841919,-6.506519623,2.969973907
-2.283501434,-3.761677551,-0.520916748
-4.301155701,-2.53557724,1.765578461
-2.724933472,-0.3005749512,1.033001862
-3.493435364,-24.60388596,-10.87623276
-5.405110016,-5.108726349,-4.806355133
-2.933300171,-7.523205414,4.940476227
-4.467459869,-10.9844577,1.918710022
-2.460433502,-12.37596405,1.443148956
-0.5252577209,-7.307354279,-0.8755293274
-0.3715274048,-8.171956329,0.3059637451
-1.103804626,-8.212222595,0.9982740784
-1.782792664,-10.79899338,1.02611618
0.8884025574,-13.12725174,-3.835923157
0.01571731567,-15.1661618,0.9144483948
-0.8991801453,-13.48515747,-0.1204994202
-1.185834045,-17.02828949,1.313668213
-2.346520386,-10.03213806,3.901486816
-3.679648132,-3.990252228,-1.415606232
-2.617606659,-4.123475189,1.169517975
-2.412233734,-0.2227368164,1.493144989
-2.098037109,-29.29513046,-20.22159897
-3.599265289,-3.912414093,-5.061873779
-5.772146759,-13.43680801,1.629361725
-2.661465454,-6.961872711,1.654210052
-1.866019592,-12.38090378,2.584076385
-0.6613247681,-9.761800232,0.6584806824
0.2778222656,-6.012995911,-2.215243378
-1.445543976,-9.210796051,-0.7247927856
-2.444716187,-11.00556381,0.3775149536
-0.005837860107,-12.27612167,-1.329684906
1.21457428,-13.9466478,1.500928802
-0.3706292725,-12.12688202,1.635199585
-1.344653778,-16.99565735,1.469344482
-2.384541321,-11.21018829,3.043022003
-3.135230255,-4.365970917,-2.396666107
-2.20910614,-2.279908905,2.518512726
-1.918260956,0.4564009094,2.147733765
-0.553099823,-33.78100204,-19.95081207
-4.454436951,-3.29030777,-4.601431274
-4.017495575,-12.95810349,4.398752747
-3.206332397,-8.742569733,1.581611023
-1.966610413,-11.91267746,1.56319931
-0.6255491638,-8.159681854,-0.03308120728
-0.2859054565,-8.221952362,-1.285676422
-1.820963287,-8.906179504,0.3257226563
-2.365231476,-10.52102142,-1.340761871
0.1017883301,-13.61104568,-0.2534230042
-0.6875202942,-13.54099136,-4.278103638
0.1160087585,-13.24071579,3.52427124
-1.08464447,-16.49449951,2.105521545
-3.157384186,-9.448352051,3.191513214
-4.481680298,-2.74618927,-1.534309387
-2.391127625,-3.541335754,1.255139923
-1.143771515,0.05388793945,1.053808594
-4.039350128,-27.51563095,-11.44160706
-5.259462891,-3.607049103,-4.500541077
-5.463787994,-9.688153381,5.339995422
-1.971101074,-10.08827133,3.015179901
-1.212328949,-13.68259689,1.796713715
0.4076023865,-6.757098541,-4.51775528
0.2698887634,-6.984026642,-0.07379653931
-1.193168793,-8.556506653,0.9699829102
-2.656525726,-11.78589111,-1.70016449
-0.1731898499,-13.23697357,0.4355941772
0.1986369324,-14.46726517,1.214274902
0.1579216003,-13.07096878,3.053200836
-1.044228516,-15.57556046,2.043700104
-2.57299942,-11.4781311,3.970792694
-3.579506378,-3.771107941,-2.625989227
-2.074236603,-3.49268692,2.525248718
-3.184477844,-0.2335144043,1.328337708
-4.437372437,-31.330448,-15.05150024
-3.304827576,-3.011287994,-4.848118286
-2.394869843,-13.12530579,-0.1016386414
-3.390299835,-7.785010986,1.089883575
-2.160307617,-11.12741043,1.845063171
-0.832868042,-10.12599289,0.690813446
0.7394622803,-6.674620056,-4.134252777
-0.9163943481,-7.790100403,-0.04236190796
-1.401086426,-9.438622284,1.41815094
-0.3471281433,-12.92487259,-7.259453888
-0.435743866,-16.16488495,-0.004490661621
-1.625469818,-11.89935516,-1.944606171
-0.9445358276,-16.86512878,1.447040863
-2.284249878,-11.90923462,3.695664825
-3.135978699,-4.883444824,-1.495090942
-1.642983398,-3.501817932,0.4923262024
-2.70053421,-0.07035369873,0.923429718
-3.253035278,-27.19484802,-21.45443527
-1.09287735,-7.097939758,-7.070696411
-5.659431152,-14.87995697,-7.209308167
-3.90927063,-6.488407288,1.477577362
-3.020269318,-11.40463394,2.790796509
-1.037941589,-10.29544052,1.238075409
0.9578581238,-7.583979034,-4.090094604
-0.5849835205,-7.961643677,-0.6798861694
-1.142124939,-9.323960724,1.434616699
0.473764801,-13.24101517,-6.369853821
0.3764671326,-15.32842438,-0.2531236267
-2.192041626,-12.44077927,-5.505850525
-0.87522995,-16.52907761,1.745669861
-2.21733902,-13.46270416,3.57576416
-2.922073517,-4.869823151,2.097138977
-2.813100128,-3.243155823,-2.075583801
-3.031046906,-2.069596252,0.9120533752
-4.234993286,-10.38869659,-21.64349213
-5.137765961,-9.380992126,-6.73150177
-6.466552734,-8.767268372,-1.303639069
-3.014880524,-8.846304016,2.623444519
-2.000290375,-12.32896179,2.658321991
-0.2242337036,-9.054820404,-0.4596940613
0.1541793823,-6.989714813,-2.26523941
-0.2622546387,-8.363108826,0.6965016174
-1.298100586,-9.13131134,0.8156538391
-1.841171265,-14.26353882,-8.965605927
0.3894900513,-15.25133469,1.006956024
-3.441643066,-11.80340469,-11.21378082
-0.1770817566,-15.99723358,1.938768311
-1.765728149,-14.32625839,3.758234711
-2.410587158,-4.886737976,2.519859924
-2.352358246,-3.520678711,-0.6846762085
-3.980223083,-1.375489655,0.7213499451
-3.262465668,-8.735384674,-14.41008408
-4.260739746,-9.173822937,-8.23856781
-4.008514252,-4.59140213,1.542093201
-4.800217896,-11.36302048,2.065854034
-1.785487061,-11.41122025,2.674338684
-0.2805166626,-11.05975113,0.8931925964
0.4593946838,-6.920708313,-0.8840615845
-0.2034269714,-7.072792053,-0.965791626
-1.321601715,-9.616302795,0.8502319336
-1.107546844,-12.86514679,-5.515131226
0.75353302,-14.14004562,0.1987866211
-3.066373444,-11.87256088,-15.23172546
-0.1438508606,-16.27894775,2.228715363
-1.782792664,-13.95712601,4.281097412
-2.690355377,-6.677763519,3.098257141
-2.084265747,-3.648063812,-0.9551637268
-3.498973846,-0.7997868347,0.4584965515
-2.88539978,-4.200714569,-3.976630554
-2.863545227,-13.07695633,-9.573192444
-4.25909317,-9.220525818,0.7464976501
-6.084547119,-9.395362244,1.698218536
-2.792443085,-9.844129028,2.079475708
-1.174308014,-11.78125076,1.528621216
0.1481918335,-6.142476654,0.3456312561
0.8146060181,-9.064849548,-2.059716797
-0.8909472656,-9.635462952,0.1704954529
-0.3365002441,-13.50446732,-3.924239502
0.468974762,-13.00585419,0.06556365967
-3.382216644,-12.25726089,-17.57420425
0.2314187622,-15.77644272,2.844834137
-1.106049957,-14.72248444,3.889212341
-2.885250092,-5.181475067,-0.6071374512
-2.545756073,-3.454665985,-1.246008911
-3.572471008,-1.319057007,1.829046478
-3.878734131,-12.03527252,-14.67742813
-2.853216705,-13.59532837,-7.503147125
-4.128714294,-9.345815277,0.7559280396
-3.563789063,-8.153694305,1.316512299
-1.669927368,-8.475824432,2.103126526
-0.899329834,-12.18780533,1.613195343
0.7417076111,-6.059100037,-3.259322205
-0.9795629883,-8.614885254,-1.267863464
-1.623523865,-8.995244293,1.008901978
-0.3914360046,-12.61366974,-3.697311401
1.332229614,-14.62967743,-1.254840546
-3.178639984,-13.25149338,-10.30217651
-0.356408844,-16.28089371,1.811233521
-2.355202332,-13.72660538,4.017944641
-3.27384201,-5.278772736,2.180814972
-2.406994629,-3.718267822,-0.8904981995
-2.896626434,-0.7430548096,1.013692017
-2.177222443,-6.597081299,-15.8403598
-4.44276123,-11.53501282,-8.212072906
-3.651656342,-10.10279114,-0.1104702759
-4.556674347,-9.011560364,1.947749634
-2.530188446,-9.795031128,2.076781311
-1.426832886,-11.7143399,1.250200195
0.3823049927,-6.311924286,-1.216969299
-0.5560935974,-8.203690338,-0.9669891357
-1.619182892,-9.270970917,0.8354127502
-0.01916015625,-13.44534027,-5.238805847
0.2845582581,-15.67689972,-0.6508465576
-1.701212311,-12.04709793,-0.1504371643
-0.7102729797,-17.08277618,1.634151764
-1.997446289,-12.30126938,2.736160126
-3.107687531,-4.739294586,1.354682922
-2.509082336,-3.718267822,-0.9047186279
-2.819387054,-1.487905884,2.002236328
-4.664300537,-22.20931549,-23.20788895
-3.641477509,-5.795348511,-6.815327454
-3.525319061,-11.72436905,-1.041234741
-3.467090149,-7.528444519,1.360520782
-2.159858551,-10.11701157,2.217638397
-1.367556152,-11.84232376,1.119072876
0.1594184875,-5.697003021,-2.683170319
-1.108894043,-8.08528656,-0.5432203674
-2.038011932,-9.798473969,0.5596861267
-0.2466870117,-12.62654297,-4.336931305
1.186732178,-15.34563858,-0.1419049072
-2.138453064,-11.41421402,-6.216572571
-0.5513035583,-16.16009491,1.769769745
-2.648891602,-12.83490967,2.570454712
-2.88539978,-5.296735382,2.298619995
-2.000739441,-3.633244629,0.009879455566
-1.911824341,-0.6171665955,0.9707313538
-3.364553375,-17.35580841,-24.51392303
-2.453996887,-8.014483795,-6.698121185
-6.513704681,-12.09619583,-0.7828720093
-3.789819031,-7.976013794,2.247576141
-2.10028244,-11.38547379,3.52666626
-0.8692424011,-9.323811035,0.7560777283
0.7177574158,-7.431446228,-5.584287415
-0.6665638733,-7.451803894,-0.7011419678
-1.868414612,-10.11641281,1.304088135
0.6417155457,-13.86446869,-8.612490234
0.4438270569,-15.94903381,0.2728825378
-0.9749226379,-10.85213287,1.735341339
-1.302142181,-17.01137466,1.505569153
-2.403252411,-12.25606339,3.044818268
-4.039350128,-4.113146667,-2.828667755
-1.666334839,-3.44703186,1.713486786
-1.600471802,-0.6982978821,1.658251648
-2.67718277,-29.90930328,-18.63609604
-2.659369812,-3.760779419,-4.275109863
-5.837710419,-12.64749939,1.689386902
-2.98015274,-7.091054077,2.003733215
-2.422711945,-13.28981369,2.89483017
-0.7048841858,-8.760831757,0.06107299805
-0.3394940186,-8.043972473,-2.192041626
-1.265468445,-8.450227661,1.223256226
-2.047292633,-9.816586304,0.887504425
0.9053173828,-13.3441507,-3.334465942
-0.1107696533,-14.41277847,0.6483018494
-0.9425898743,-11.74263107,0.6460565186
-1.58550293,-16.34810394,1.380579071
-2.84453476,-10.48329987,3.597319336
-4.026776276,-3.736679535,-1.813029785
-1.45437561,-3.920497284,1.201102295
-1.820364532,-0.2490820313,1.879491577
-3.18732193,-29.9727713,-32.22274246
-5.25018219,-5.561684418,-5.88665863
-7.568561096,-10.41174866,4.462819519
-2.363285522,-10.53149963,3.232527924
-1.038390656,-12.67294647,2.161804504
0.7189549255,-7.224277039,-4.587809601
0.2856060791,-5.589227142,-0.6412664795
-1.260678406,-9.029073944,0.5839356995
-2.383643188,-11.1875853,-0.3592529297
0.2716850281,-13.92314667,-2.151625671
0.6718029785,-15.1595755,1.065484314
-0.2519261169,-12.38314911,2.825075226
-0.6105802917,-16.24002869,1.17475708
-2.203567657,-10.55874298,4.127217407
-4.27316391,-3.198398895,-1.22864502
-2.452050934,-4.371210022,0.734223175
-1.690434723,-0.4517605591,1.70360733
-5.615422668,-32.36464737,-17.46044083
-2.809806976,-2.018552399,-7.109316101
-5.067262573,-12.29094086,6.039490814
-3.316652985,-8.658893738,1.823657684
-2.300865326,-11.8165773,2.236499176
-0.3438349915,-9.067094879,-0.3225791931
0.26210495,-7.865244141,-0.1712438965
-0.7788304138,-8.186176758,0.4320016479
-1.967807922,-9.951755219,1.076112213
0.503253479,-13.02755905,-6.108946381
-0.4601431274,-14.89447678,0.7409591675
-1.307680664,-13.04671921,-2.98254776
-1.161584473,-18.1695163,1.747166748
-2.479893036,-10.17539017,4.219126282
-3.613934784,-3.916904755,0.3935316467
-2.034120026,-3.851790161,-0.7975415039
-2.568059692,-0.2724334717,1.516646118
-3.84026413,-28.98183197,-26.51376434
-4.437222748,-3.722459106,-6.71862854
-7.346872101,-12.81604889,2.743644562
-2.163750458,-8.909322968,2.252964935
-1.0975177,-11.30374374,2.466421051
-0.2408491516,-10.33570679,0.4123924255
-0.02544708252,-7.238647156,-0.8478369141
-0.889151001,-7.439828796,0.3562591553
-2.07333847,-11.34191437,0.7252418518
0.5996530151,-13.1582373,-2.868035889
0.9172924805,-14.81154922,1.701811066
-3.219654694,-11.65266815,-11.47618515
-0.4842430115,-18.20020248,1.244811401
-1.476828918,-12.4602388,3.931723938
-2.853965149,-5.036576385,-1.514550476
-2.037562866,-3.69626358,1.423539734
-3.370091858,-0.4406835938,1.238973541
-4.620441742,-29.7485376,-25.44124466
-3.807931366,-6.080056458,-7.921676788
-4.490511932,-11.3746962,-0.7020401001
-3.254232788,-7.466922455,1.634451141
-2.255210266,-11.93078979,2.635120239
-0.8208929443,-9.474248199,0.5233117676
0.7845185852,-5.970334625,-2.966381378
-1.152752838,-8.597221985,-1.677711182
-1.608405304,-8.580905914,0.7231462097
0.3995191956,-13.38905731,-3.487597504
1.576820984,-14.83564911,0.2430944824
-4.067641296,-11.46914978,-13.60969849
0.002844085693,-17.12738342,2.063459015
-1.965562592,-15.40626251,4.069138184
-2.466121674,-5.154980164,2.271376648
-2.527494049,-4.043092346,-0.7716453552
-3.730841675,-0.9460327148,0.9482780457
-1.50946106,-5.058880005,-11.82690582
-4.541406097,-18.7720134,-8.986712036
-7.277266846,-6.114933929,-1.017583923
-3.309467926,-7.259453888,3.336860962
-3.13343399,-11.40508301,2.819387054
-1.228195953,-12.95061905,1.536854095
0.9116043091,-6.259682922,-4.225113831
0.3329077148,-7.353907471,-1.080602875
-0.7571255493,-6.89526123,1.106499023
-1.671573944,-13.44204712,0.1944456482
0.8574169922,-13.57347382,-1.537153473
-1.340312805,-12.89134232,-0.6044430542
0.2662962341,-14.44810501,2.965782623
-0.9532177734,-16.95838486,1.466949463
-2.183060303,-9.452543335,3.98651001
-3.632496185,-2.953358459,-1.40063736
-2.875969391,-3.546275482,1.837728424
-1.206640778,0.3532653809,1.92948761
-3.76182724,-32.85547668,-12.90167084
-2.002386017,-1.199904785,-3.731739807
-9.68007019,-15.79769852,0.956660614
-2.47824646,-9.062753906,1.581012268
-1.116378479,-10.52446426,1.539698181
0.213306427,-9.114097137,0.380508728
0.4306544495,-6.267317047,0.21061203
-0.7604187012,-8.659342804,0.1294807434
-2.254910889,-11.4197525,-0.4339476013
0.3146456909,-12.95241531,-0.2406994629
1.385069733,-16.13165405,1.150806885
-1.115929413,-12.20367233,0.5060975647
-0.8791218567,-16.08031082,1.503922577
-2.705923004,-12.67564087,4.052522736
-3.955973511,-3.603606262,-0.5126838684
-1.616039429,-3.827241211,0.7030879211
-2.268083496,-0.2960842896,1.228046265
-4.888085175,-26.45149384,-27.68926987
-3.310366058,-4.4896138,-6.42733429
-5.191504211,-14.2756636,2.534529419
-3.291954346,-8.00460434,1.771865387
-1.71184021,-10.71576645,2.906954956
-0.5066963196,-9.303153992,0.8035290527
0.9316625977,-6.817572784,-4.759502563
-1.573228455,-7.80327301,-2.126627655
-1.817221069,-10.02225861,0.2724334717
0.5210664368,-13.18054092,-2.28170517
1.975442047,-15.73542801,-0.04595443726
-1.684447174,-13.40731934,-3.561244354
-0.2932402039,-15.58349396,1.819915466
-2.720592499,-12.8584108,3.830684052
-4.981940002,-4.01689682,0.08038284302
-2.482737122,-3.75479187,-1.7504599
-2.252815247,-0.3514691162,0.9551637268
-4.651726685,-14.64404755,-22.11216751
-2.166893921,-3.959865417,-5.802533569
-5.5871315,-12.03632034,-1.194366302
-3.307372284,-7.230713654,1.366957397
-2.271676025,-10.91799591,2.849324799
-0.8934919739,-10.94658646,0.9184899902
0.7631130981,-6.99600174,-1.757046204
-0.5819897461,-7.782615967,-0.8184979248
-1.807191925,-10.00893631,1.302142181
0.8526269531,-12.97322205,-5.438340912
0.5424719238,-15.13352966,1.244062958
-3.1253508,-11.26033401,-10.47731232
-0.09684860229,-18.00500839,1.864373016
-1.884880371,-12.73596542,3.503464508
-2.601889343,-4.476141815,2.087708588
-2.418071594,-3.738176422,-1.257534943
-3.558100891,-1.191222839,0.4095483398
-1.955084381,-3.836372223,-0.7000941467
-3.32189209,-14.68551132,-9.880503387
-5.128185883,-9.144783325,-2.602787476
-5.563480682,-8.036637726,3.982618103
-3.272345123,-11.16573074,2.911894684
-1.434916077,-11.91133026,1.454824677
1.002315674,-5.979315948,-5.644162903
-0.02514770508,-7.992778931,-0.7000941467
-0.9442364502,-7.34702179,1.583706665
-1.443448334,-15.54682022,-5.226231995
0.6411167908,-14.45050003,-0.07185058594
-1.749112701,-12.35156479,-8.826694794
-0.6080355835,-14.87441849,1.835034027
-2.215542755,-15.1170639,2.899769897
-3.260070648,-6.929839325,2.919229431
-2.088007965,-3.169508972,-0.9232800293
-2.033670959,-2.383044434,2.09564209
-1.657952271,-2.834804993,-2.605481873
-4.894072723,-14.7614035,-9.241482239
-3.472928009,-4.311035156,-2.787353668
-6.264023895,-11.78379547,2.606230316
-2.455493774,-10.07704468,1.836530914
-1.167272644,-11.98123489,0.8244854736
0.3854484558,-6.00955307,-2.220931549
-0.09475296021,-7.8418927,-0.0809815979
-1.573827209,-9.19447998,1.007554779
-2.649340668,-13.5975737,-7.944579163
0.33230896,-14.60003906,0.539178772
0.119002533,-11.78544205,-0.6821315002
0.2998265076,-15.00913834,2.807411957
-1.490450592,-16.09108841,3.337609406
-2.293231201,-7.120393066,4.193828888
-2.658321991,-3.567082214,-1.345851288
-3.566333771,-2.297422485,1.007554779
-1.459165649,-1.36201767,0.986149292
-5.137017517,-21.7048645,-9.44850174
-4.296814728,-1.334924011,-2.711012421
-5.983956299,-14.48462906,5.815406799
-2.372865601,-9.250164185,1.946402435
-0.9892927551,-11.25449615,1.387015686
0.4538562012,-6.987170105,-3.541485443
0.1704954529,-7.517966309,-0.003442840576
-1.455273743,-9.92585907,0.8090675354
-3.161276093,-11.35987701,-2.781366119
-0.01437011719,-13.37289093,0.8367599487
0.6816824341,-12.19978043,-1.863175507
0.1556762695,-14.26009598,3.836821289
-1.456321564,-17.71146881,2.305655365
-2.811453552,-8.068671112,3.531156921
-3.577710114,-2.756368103,-1.956132202
-2.579436035,-2.570305023,1.39120697
-1.582060089,-0.1823208618,1.654958496
-5.510640564,-28.86148224,-12.75976593
-4.296964417,-3.305576019,-3.032992859
-6.177952881,-9.536069641,4.728217621
-3.149001617,-12.08751389,3.132236481
-1.253343658,-11.48067581,1.639390869
0.7140151978,-6.116580505,-4.451143799
0.08202941895,-7.99517395,-0.9021739197
-0.713865509,-8.770262146,1.702858887
-1.70360733,-12.04904388,-0.4697232056
0.3125500488,-13.60430969,-0.7167095947
-2.168690186,-12.00713104,-5.965993652
-0.04954696655,-14.43463303,2.875370636
-1.475631409,-16.17671036,2.562221832
-2.427801361,-7.036268005,3.509901123
-2.252815247,-4.18424881,-1.858684845
-2.827919312,-1.102307739,1.131047974
-1.293759613,-0.5066963196,-2.663710785
-1.450783081,-29.21130478,-10.50440598
-2.799328766,-4.333189087,-3.384461975
-5.238356781,-7.19014801,3.681294708
-4.124672699,-12.61456787,3.287313995
-1.969454498,-11.6188385,1.487007751
0.1140628052,-6.826554108,-4.608017578
-0.6888674927,-8.158334656,0.705333252
-1.058598633,-8.147108002,1.547481995
-0.860710144,-13.36121521,-3.094664612
0.1213975525,-13.13743057,0.1565744019
-1.33627121,-13.16482361,-1.713786163
0.05523513794,-15.0016539,2.436632996
-1.156195679,-16.07671829,1.73294632
-2.059567108,-7.099586334,3.368295593
-2.747985535,-2.826123047,-1.634151764
-2.497406616,-3.541485443,2.5015979
-1.539548492,-0.6385720825,1.229842529
-3.650009766,-25.63284622,-11.28817612
-4.089944916,-2.890040131,-4.886588287
-5.125790863,-11.37095398,4.980892181
-3.307072906,-10.74286011,2.031575317
-1.089434509,-11.0349028,1.664837952
0.3516188049,-7.999514923,-1.682052155
-0.06496490479,-7.292984161,0.04834945679
-1.038240967,-8.441994781,0.6559359741
-1.989812164,-12.07194626,0.4189787292
0.4071533203,-12.84538788,-0.7725434875
0.6373745728,-14.18240753,1.353036346
-0.07050338745,-11.87540497,1.752405853
-0.9138496399,-17.02724167,0.9083111572
-2.078577576,-10.69211563,4.27436142
-3.252137146,-3.709735565,-0.9728269958
-1.732197876,-3.930825806,0.7104226685
-2.010618896,-0.3734733582,1.474134521
-6.040688324,-33.62861893,-19.78181351
-4.331392822,-3.922892303,-6.697073364
-5.071004791,-11.93348419,3.62725708
-3.152893524,-9.263037415,1.763931885
-1.165775757,-11.39580231,2.506837006
0.6551875305,-9.019493866,-3.088677063
0.1947450256,-6.171665955,-0.3224295044
-0.9166937256,-8.453520813,0.3317102051
-1.506766663,-8.584498444,0.8029302979
-1.133592682,-15.51328995,-8.579259338
-1.561552734,-14.85525833,0.7809260559
-2.614912262,-14.1059166,0.8107141113
-1.915566559,-15.47467026,3.872297516
-3.239862671,-11.8272052,2.132166138
-1.890568542,-5.376818848,2.430196381
-1.46964386,-1.844913483,2.540966034
-1.318607941,-0.9782157898,1.635349274
-8.03843399,-7.136110382,-0.9747729492
-9.253307648,-7.799530792,-11.67826492
-5.040168915,-6.532715149,2.064357147
-8.595126343,-15.22768387,3.777694244
-1.980381775,-11.67631897,3.426823883
-1.30812973,-9.052126007,-0.0008981323242
-1.96571228,-7.462731171,-4.359983368
-1.209933929,-5.879174194,-0.8364605713
-4.649481354,-14.76125381,-0.7180567932
-5.689518585,-11.11319,-2.487676849
-4.382436676,-12.60528717,-2.14713501
-3.468587036,-19.32900513,-0.6649172974
0.3394940186,-10.58419006,3.374732208
-5.84579361,-9.106463013,0.6397695923
-5.307812347,-1.255588989,-0.7364685059
-2.663261719,-2.89947052,1.463955688
-1.312770081,-6.029611359,4.055067444
-3.708687744,-14.28838715,-7.200775909
-6.603517914,-10.34034714,-6.471342773
-4.25445282,-13.68169876,2.92057663
2.1857547,-14.65512451,8.147557068
-1.162632294,-6.606811066,-17.29368759
-1.039588165,-9.362281036,2.970273285
-1.750160522,-4.088148651,-4.165088654
0.01676513672,-7.664212189,0.3659889221
-0.7789801025,-9.935888214,4.715045013
-1.069226532,-17.36149658,0.8072712708
0.7134164429,-12.13586334,-0.7441026306
-1.451830902,-6.515351257,2.551893311
1.046174469,-16.89237213,2.428998871
-7.986492004,-12.89628204,-20.16381912
-1.234033813,-2.072590027,-0.1202000427
-2.107018433,-0.5116360474,1.926044769
-2.46776825,-5.679339752,1.441203003
-5.333109741,-16.6473317,-9.449549561
-4.967270508,-10.64421524,-2.912792816
-3.550317078,-8.281678162,2.694396973
-1.780098267,-8.969647522,1.459315338
-0.54292099,-11.74921738,1.748214569
0.2389031982,-6.06568634,0.8946894836
-0.1963916016,-9.965975647,0.7141648865
-0.9056167603,-9.226962433,-0.7111711121
-0.4149371338,-11.23548569,0.8066725159
1.898801422,-13.10449905,-0.07379653931
-0.5257067871,-13.22410034,-0.6367758179
1.518592072,-14.41038345,4.582720184
0.3388952637,-15.47916092,5.728437653
-2.114502869,-5.285957794,2.208058319
-2.580184479,-3.516637115,0.5430706787
-2.889740753,-2.024689636,0.9614506531
-3.013383636,-6.455775146,-5.8737854
-2.557132416,-13.64846786,-10.24754013
-3.025059357,-10.36729111,-1.777104492
-3.314108276,-9.043144684,4.151317291
-2.108964386,-9.079668732,1.663939819
-1.181044006,-13.62077545,2.14009964
0.2683918762,-6.43077713,0.7773335266
1.504221954,-8.414751434,-4.281845856
0.09131011963,-8.124355316,1.0577005
-0.6997947693,-12.6022934,-0.06676116943
1.608554993,-13.38995544,0.4748126221
0.05822891235,-13.03803726,-6.491251373
1.562600555,-15.13382904,3.604654083
0.5373825073,-14.48417999,5.582940216
-2.160606995,-8.383316803,3.263214111
-3.140619049,-3.907324677,0.1648072815
-1.503174133,-3.420836334,0.5766009521
-1.325942688,-0.8785231018,0.3330574036
-4.977449341,-27.99643112,-16.73549835
-4.083957367,-4.386927338,-1.588646393
-2.935994568,-11.235336,4.501139832
-1.181193695,-8.663683777,2.379451904
-0.05149291992,-12.42476257,2.051034851
0.6183641052,-8.290509796,0.2145039368
0.283510437,-8.637937317,1.438957672
-0.3670367432,-8.339308319,0.5655239868
-1.261576538,-10.9792186,0.6306385803
1.132395172,-13.61823074,-0.8276289368
1.563648376,-13.22649536,-0.6644682312
1.308429108,-13.42812607,3.619772644
0.8041278076,-16.22670639,3.972738647
-2.033521271,-8.785380707,3.768413544
-3.431763611,-3.304827576,0.7033872986
-2.138303375,-4.486769714,0.5237608337
-0.6670129395,-1.226848755,1.944755859
-4.48497345,-25.79301315,-13.64846786
-6.108048248,-3.795058136,-4.745282135
-4.143084412,-13.61224319,5.428162079
-1.096619568,-10.54272629,2.054777069
0.4399351501,-11.51764893,1.790875854
1.475781097,-7.69100647,-3.170107727
1.106648712,-6.798262939,0.859662323
0.3950285339,-8.873098297,0.1681004333
-1.030906219,-12.15816696,-0.2697390747
-0.08906478882,-11.67572021,-2.503843231
2.560425568,-14.14782944,0.2404000854
1.008303223,-12.10936844,2.481539612
1.007105713,-16.43716873,1.319356384
-1.444645844,-12.65423538,4.324357452
-2.579885101,-2.81399826,1.255738678
-2.236499176,-3.580703888,1.252744904
-2.151475983,-1.459015961,1.62996048
-6.052364044,-28.44639542,-20.25378204
-4.7364505,-5.225483551,-7.395221558
-2.803669739,-12.23750198,2.515518951
-1.95867691,-7.190447388,2.273621979
-0.6569837952,-12.03123093,3.488196259
0.6963519287,-10.23960663,0.5715115356
1.039737854,-7.542814636,0.7726931763
-0.01871109009,-7.909402313,-1.393751678
-0.4728666687,-10.97996704,1.250649261
0.1052311707,-11.21228394,-7.477101288
1.592987366,-14.62922836,-0.1628613281
-0.4948709106,-12.45275436,-1.172811127
1.095871124,-17.04101303,2.286644897
-0.3426374817,-13.29056213,4.298161926
-3.16980835,-4.533173218,1.567390594
-2.27931015,-4.834646301,-0.4819976807
-2.288590851,-0.8934919739,1.078058167
-3.442241821,-22.08357697,-27.87263855
-5.27473114,-10.25128235,-8.309370575
-3.412453766,-11.64787811,0.5194198608
-1.546434174,-7.809559937,1.988914032
-0.6963519287,-11.45088776,2.211201782
0.5478607178,-11.51480484,0.6979985046
0.5899232483,-6.154451752,-1.688339081
0.06691085815,-7.523504791,-0.1694476318
-0.5044509888,-9.984836426,1.208137665
-0.3061134338,-12.09784241,-8.24680069
1.537901917,-15.79620163,-0.3854484558
-0.9208850098,-11.30269592,-4.158652039
0.5551954651,-15.08203674,1.831890564
-0.5719606018,-14.80541199,3.757037201
-1.907483368,-6.155649261,2.380649414
-1.273701324,-4.579876099,-0.5125341797
-1.809736633,-1.985471191,1.469194794
-0.4894821167,-1.839674377,-2.386038208
-8.834777985,-17.70114029,-10.93446167
-5.442681885,-6.163582764,1.09871521
-2.146985321,-12.65453476,4.570745087
-0.1649569702,-11.24132355,1.730700989
2.423310699,-11.19566849,-4.394262085
0.7951464844,-4.395309906,-0.3866459656
0.5093907166,-8.615783386,0.876277771
-0.1730401611,-9.047186279,1.193318481
-2.427651672,-14.44930252,-3.219804382
0.9960287476,-14.6168042,0.4498146057
-0.1898052979,-11.2339888,-3.432362366
0.910556488,-13.70220612,2.071542206
0.5128335571,-16.26263168,4.158053284
-1.651964722,-5.642366638,2.716550903
-3.10184967,-3.572920074,0.04475692749
-1.662442932,-3.570674744,0.8436456299
-1.042432251,-2.544408875,0.1022373962
-5.672903137,-20.98905304,-11.12995514
-5.846991119,-5.749992828,-3.055446167
-2.694546661,-11.53156998,5.544919281
-1.034049683,-11.53216873,1.882485352
0.3983216858,-12.2996228,0.6080355835
0.6917115784,-6.875951385,-0.7852670288
0.637224884,-6.797514496,-0.3412902832
-0.1044827271,-9.483079834,0.9710307312
-2.568658447,-13.3984877,-0.8568182373
1.110241241,-14.96662674,0.5054988098
1.964963837,-12.57879227,0.9062155151
0.9213340759,-11.74308014,2.314786377
0.9258247375,-17.75128601,3.014281769
-1.426533508,-8.270451508,2.616858215
-2.299967194,-3.766617279,0.7586224365
-1.254092102,-3.241808624,1.929786987
-1.039887543,-0.9713301086,2.123783569
-3.773652649,-28.41600861,-12.37805969
-3.932322693,-4.753814392,-2.465822296
-2.398013306,-10.88835754,5.8844133
-1.619332581,-7.775879974,2.033670959
-0.789458313,-13.69352417,2.246228943
0.4568499756,-6.153104553,-0.9972262573
1.000818787,-8.031099243,-0.3141966248
-0.3110531616,-7.9905336,-0.6080355835
-0.6007008362,-10.90781708,1.114731903
2.221380615,-11.8749559,-5.735922089
1.50586853,-15.64292038,-0.4810995483
-0.2664459229,-12.43748611,0.6075865173
0.2435435486,-16.83638855,2.699037323
-1.124162292,-12.41413467,3.457061005
-1.52577713,-4.470453644,-0.9665400696
-0.4936734009,-4.566104736,2.145338745
-1.30229187,-0.7024891663,1.893861694
-2.969225464,-21.87461151,-26.85700058
-6.608757019,-7.580536194,-6.734794922
-4.649481354,-10.43809387,4.530029755
-0.7852670288,-11.60611496,3.123853912
0.8387059021,-11.81612823,0.1368154907
0.6042933655,-8.080795898,-1.849254456
0.4457730103,-5.507796478,-0.5120851135
-0.1550775146,-7.423213348,0.8894503784
-0.5292993164,-10.9792186,0.8506809998
0.5870791626,-12.56921219,-11.80160843
1.008303223,-16.37444916,-0.2749781799
-1.955982513,-9.749226379,-3.88112915
0.8334667969,-17.15762054,2.357297974
-0.2038760376,-10.90138046,3.813469849
-1.418450317,-4.678970032,2.287842407
-1.79252243,-5.326373749,-0.6075865173
-2.671045532,-1.608255615,0.5153782654
-4.672084351,-18.14362015,-23.36431366
-3.578458557,-7.071594543,-9.650132446
-3.2142659,-9.571096802,-1.207239532
-3.373834076,-8.063731384,1.956730957
-1.382974091,-11.19701569,1.932032318
0.2237846375,-11.23593475,0.3261717224
1.320254517,-6.649172974,-2.741099854
0.6794371033,-6.487359467,-0.5539979553
-0.05867797852,-10.52730835,1.093476105
-0.7479945374,-12.42341537,-5.172493744
1.508113861,-15.34623734,-0.5414241028
-2.105072479,-10.85797073,-5.716163177
1.110839996,-16.36876099,1.350192261
-0.1648072815,-14.51217178,3.585942993
-4.149820404,-5.519172821,-0.6140231323
-0.750838623,-4.35384613,0.04101470947
-1.174008636,-1.798360291,2.463277588
-1.552421722,-10.64226929,-20.25782364
-5.322631531,-15.04356674,-9.163494415
-3.196902008,-10.8186026,-4.900209961
-4.909490662,-5.754782867,3.851191406
-3.518583069,-8.187374268,2.643502808
0.7435038757,-14.80720825,0.1386117554
0.8649014282,-6.133046265,-0.4710704041
1.006656647,-9.219178619,-0.5099894714
0.3248245239,-9.164691925,0.4716691589
0.1342707825,-11.87330933,-2.541864166
1.666035461,-12.91469376,-1.489253082
-1.025218048,-11.69293442,-6.724316711
1.572480011,-15.51089493,3.360362091
0.8611592102,-15.51508621,4.980742493
-2.614762573,-8.538544006,-0.2866539001
-3.857029266,-6.559808807,0.6348298645
-2.959645386,-0.6215075684,0.8165519714
-1.533560944,-0.5688171387,0.3996688843
0.2718347168,-19.57075241,-7.097640381
-2.811603241,-3.101550293,-1.194216614
-4.199666748,-15.01108429,1.546134796
-2.160457306,-8.329279175,0.6915618896
-0.05014572144,-12.69016068,1.413660278
0.9074130249,-7.247628479,-1.422342224
1.089883575,-7.84069519,-0.4111949158
0.2451901245,-7.745493164,0.8312214661
-1.076710968,-10.80318466,0.2324665833
1.642085266,-13.62451767,-3.805236969
-0.3381468201,-14.77727051,-0.9800120544
0.4249662781,-12.91244843,0.3619473267
0.4845423889,-16.4136676,3.656596069
-0.7156617737,-10.57745407,3.980073395
-1.297801208,-4.504133606,-2.498903503
-1.005309448,-3.344644775,2.324216766
-1.691632233,-0.7575746155,1.588347015
-2.121837616,-32.03578125,-24.65463043
-4.026776276,-4.370012512,-6.49274826
-2.382894745,-12.22043747,4.344864807
-2.647843781,-8.823251953,1.289119263
-1.171463928,-11.51540359,1.640139313
0.2520758057,-10.14156052,0.3641926575
1.340462494,-6.497238922,-3.166664886
0.2577639771,-6.615493011,-0.9321116638
-0.2287243652,-10.56577835,1.025068359
-0.4739144897,-12.02000427,-6.024222565
1.40991806,-16.91347824,-0.9205856323
-0.7161108398,-12.30456253,-0.666713562
0.8893006897,-15.58768524,2.104324036
-0.7509883118,-12.8385022,3.817810822
-2.102527771,-5.450166321,2.249671783
-2.354603577,-4.438869324,-0.1760339355
-1.106349335,-1.089135132,1.594933319
-2.898722076,-22.06127335,-24.50898331
-4.812941437,-6.732998657,-7.034322052
-2.340233459,-9.952054596,0.06735992432
-3.663332062,-9.747579803,2.377955017
-0.4535568237,-10.7482489,2.46297821
0.3379971313,-11.18384308,0.6914122009
1.018781433,-7.039112091,-3.280128937
0.2275268555,-6.188880157,-0.8216413879
-0.3948788452,-10.8903035,1.26951004
-0.8669970703,-11.76598251,-8.676407318
1.871707764,-14.99641479,-0.1841171265
-1.921853485,-11.31721573,-7.567962341
0.8580157471,-16.10231506,1.902992706
-0.7493417358,-13.23338104,3.960015106
-2.570305023,-5.181475067,1.584155731
-2.590513,-4.790937195,-0.2251318359
-1.684746552,-0.9349557495,0.7164102173
0.3769161987,-17.29204102,-24.1136554
-3.608995056,-12.51412674,-7.710016937
-6.649023285,-8.109536133,-2.660267944
-1.619182892,-10.82893112,4.284091187
-0.005388793945,-11.44669647,2.517764282
1.304387512,-12.10278214,-2.948718109
0.3668870544,-3.94669281,-0.3255729675
0.1222956848,-7.609875183,0.8523275757
-0.5390290833,-9.96208374,0.9202862549
-1.957778778,-14.33883224,-14.72233475
1.610201569,-15.50251236,-0.2086660767
0.2252815247,-10.23421783,-1.924697571
0.9485774231,-15.23501862,1.560654602
-0.189206543,-14.75361969,2.371368713
-4.10700943,-6.561006317,0.362845459
-1.960622864,-3.852239227,2.243384857
-1.014739838,-0.8155041504,1.506018219
-0.5523513794,-11.88648193,-18.62921036
-5.8445961,-10.49392776,-8.139773254
-5.105433197,-7.328909454,-0.705333252
-2.712658997,-8.87743927,2.1658461
-0.5818400574,-11.64862656,2.649939423
1.346899109,-11.34191437,-1.728904724
0.6626719666,-6.608906708,-0.6216572571
0.1059796143,-8.225095825,0.1240919495
-0.4487667847,-9.33848053,1.078058167
-2.291285248,-13.9532341,-7.745493164
1.801204376,-15.95861389,-0.819994812
-2.429298248,-10.55095917,-4.718787231
0.9193881226,-15.99543732,1.65914978
-0.7625143433,-12.43030106,3.370391235
-4.342769165,-4.373155975,1.256038055
-2.752775574,-4.366569672,0.338745575
-1.459315338,-1.836081848,1.188229065
-3.945345612,-22.15018845,-24.7519281
-6.463109894,-10.01911514,-8.685238953
-2.853665771,-10.14859589,1.914069672
-2.252515869,-9.50104248,2.26059906
-0.6435118103,-10.34199371,1.720222778
0.7476951599,-11.48576523,0.7855664063
1.319057007,-5.248385925,-4.278253326
0.4138893127,-6.307283936,-0.7144642639
-0.5477110291,-12.13077393,0.6339317322
-1.097966766,-12.0036882,-3.580254822
2.433489532,-15.42662018,-0.2451901245
-0.7773335266,-11.91567123,-1.649569702
0.3020718384,-16.05216934,1.376836853
-1.671723633,-14.02987473,4.209546204
-3.428919525,-3.458557892,0.03802093506
-0.9867480469,-3.699706421,-0.2116598511
-1.23448288,-1.061442719,1.379980316
-6.027665405,-30.76297806,-27.76935333
-3.483855286,-3.230881348,-3.841910706
-3.219505005,-9.459429016,3.651656342
-2.265987854,-9.726623383,1.046473846
-0.7954458618,-12.0688028,0.8381071472
0.8620573425,-10.40650955,-0.7743397522
0.9629475403,-5.724994812,0.2522254944
0.259410553,-7.594008179,-0.4808001709
-0.3132984924,-10.0993483,0.7051835632
-0.1760339355,-12.46832199,-7.201374664
1.579066315,-16.01744156,-0.2354603577
-3.655697937,-11.24701172,-2.436483307
0.3050656128,-16.94446381,1.821562042
-0.09565109253,-14.41158096,4.188589783
-1.941313019,-4.805007935,0.9388476563
-1.85224823,-4.71773941,0.4047583008
-2.25236618,-0.6753955078,1.419198761
-2.297572174,-10.84449875,-20.52352112
-4.627926178,-8.826245728,-8.414302368
-4.790488129,-7.67229538,0.4438270569
-1.727258148,-7.758665771,2.332898712
-0.5575904846,-12.83835251,1.813329163
1.09167984,-12.02674026,-1.774110718
0.2878514099,-4.747228088,-0.3640429688
0.06616241455,-8.194858704,0.8454418945
-0.4336482239,-8.936865692,0.8990304565
0.4743635559,-12.65333725,-8.806786194
0.7054829407,-14.7774202,-0.7345225525
-3.805536346,-10.35426819,-5.578898621
1.137185211,-17.18231918,1.531465302
0.4131408691,-13.98496811,3.941453705
-1.528471527,-6.989714813,3.011587372
-2.118694153,-4.62418396,-1.234183502
-2.29921875,-2.231709137,2.222877502
-0.4481680298,-2.346520386,-0.48559021
-4.28947998,-15.49577637,-9.977801056
-4.225413208,-4.045637054,-1.874851227
-3.687581635,-11.4966925,4.480782166
-0.8102650452,-11.52797745,2.391576691
0.2796185303,-11.66988235,0.3893403625
0.763711853,-6.841073914,-1.710343323
0.2477348328,-7.219936066,-1.126557312
-0.1396595764,-8.453520813,1.117575989
-0.9541159058,-13.4197435,0.5322930908
1.559157715,-14.20725586,-0.6578819275
1.249451752,-12.67878433,0.3382965088
1.103954315,-13.30627945,2.084415436
0.8927435303,-17.16390747,3.858526154
-1.950444031,-8.569080505,3.593876495
-2.595003662,-3.89984024,-0.169896698
-1.341210938,-3.007246399,1.839973755
-0.8927435303,-0.4622387695,1.426533508
-4.89796463,-25.62745743,-10.92278595
-4.194577332,-2.58467514,-3.337160339
-5.247188416,-15.31046173,6.441854095
-1.560654602,-9.85565506,1.810934143
0.01451980591,-10.60260178,0.97701828
0.819994812,-7.876171417,-2.254910889
1.022074585,-6.853647766,-1.063688049
0.2935395813,-7.699389038,1.097966766
-0.4858895874,-12.53313721,0.8379574585
-0.04730163574,-13.0163324,-3.62845459
1.497036896,-14.76709167,0.2945874023
1.477577362,-12.61112503,2.791395264
0.8487350464,-17.77718216,2.914888458
-1.830393677,-8.983568573,2.800376587
-4.139641571,-3.827989655,0.3811074829
-2.138602753,-3.602408752,0.3565585327
-0.3921844482,-0.7885601807,2.147434387
-4.29427002,-28.4612146,-15.86401062
-6.811585236,-4.772675171,-5.799240417
-4.26852356,-14.13435745,5.539829865
-1.049018555,-8.36490509,1.866618347
0.1965412903,-11.2538974,1.842967529
0.8734336853,-8.198151855,-0.9312135315
0.8322692871,-7.432194672,0.0672102356
-0.4905299377,-10.0887204,-0.1170565796
-1.125509491,-10.23257126,0.4123924255
1.803000641,-12.88146286,-2.758314056
2.342927856,-15.53604263,0.2477348328
1.088386688,-11.3043425,3.000510406
0.6520440674,-16.63864975,0.7158114624
-2.146236877,-11.73065598,2.782114563
-4.598886566,-3.105741577,1.559906158
-2.050735474,-3.374133453,0.5269042969
-0.6950047302,-1.693578186,0.7927514648
-4.743036804,-25.13093994,-16.82830536
-4.543651428,-4.509672089,-7.129673767
-3.144810333,-11.46690445,2.110161896
-2.433040466,-8.369246063,1.924098816
-0.6828799438,-11.66853516,2.564616852
0.4110452271,-10.03243744,0.5565426636
1.209933929,-5.917943573,-1.86631897
0.1440005493,-8.817264404,-1.392105103
-0.9259744263,-10.14275803,0.5246589661
2.065854034,-13.15868637,-1.766326904
2.996169434,-15.81670898,-0.69620224
-1.226848755,-12.77293854,-0.3921844482
0.6442602539,-15.97867218,2.201172638
-1.067280579,-11.51450546,4.089795227
-3.432512054,-4.99631012,0.6189628601
-1.555265808,-4.77162735,-0.02739303589
-1.881736908,-1.621577911,1.189576263
-2.46073288,-13.09446991,-20.46948349
-4.14907196,-9.910740509,-8.268206177
-4.733606415,-10.43914169,-1.954635315
-1.833088074,-8.162675629,2.589315491
-0.6497987366,-11.80085999,3.147055664
0.3432362366,-10.63298859,-0.5480104065
0.3085084534,-7.560028839,-2.327958984
0.1847158813,-7.170838165,-0.6789880371
-0.5445675659,-10.64960403,1.411714325
0.00628692627,-12.24708206,-10.06911118
2.861599274,-15.5231694,0.1541793823
-2.029479675,-11.86268143,-2.40923996
0.9403445435,-16.62622559,1.981130219
-0.8794212341,-11.9453096,3.149600372
-3.820056152,-4.611610107,0.4110452271
-1.557211761,-4.811294861,-0.4873864746
-1.50586853,-1.001716919,1.395997009
-2.531685333,-15.60849197,-24.16065765
-3.503763885,-8.509205017,-8.279881897
-4.987927551,-12.55065079,1.300495605
-2.41388031,-6.802154846,2.640509033
-0.9913883972,-12.54376511,3.841012573
0.2062710571,-9.75970459,0.06735992432
0.7554789734,-7.151228943,-0.1260379028
-0.1856140137,-8.875193939,-2.615660706
-1.077459412,-10.30966095,-0.006586303711
1.760039978,-13.5537149,-0.8252339172
2.654579773,-14.4269989,-0.1130149841
0.2796185303,-12.57265503,2.838397522
0.6541397095,-16.99700455,2.614313507
-1.402433624,-10.84330124,2.658321991
-2.997666321,-4.281097412,-1.291065216
-1.506018219,-3.494632874,2.559527435
-1.265767822,-0.3164419556,2.57299942
-4.104913788,-31.19228531,-25.45157318
-5.867049408,-3.937112732,-4.480482788
-3.967200165,-12.11745163,5.916596375
-1.070424042,-10.00205063,2.481689301
0.01975891113,-12.19229599,0.9987231445
0.4317022705,-7.653135223,-2.393073578
0.0426612854,-7.306456146,-0.627046051
0.2749781799,-7.994575195,0.9788145447
-0.8578660583,-10.81530945,0.3860472107
1.165177002,-12.73297165,-1.382824402
2.442470856,-15.0627269,0.7545808411
-3.920197906,-11.16528168,-9.188941498
1.25903183,-16.36876099,0.3549119568
-0.3520678711,-12.44991028,3.459456024
-1.478774872,-5.277425537,1.145118713
-1.410067749,-4.475093994,0.07080276489
-3.082839203,-0.9391470337,1.315913544
-2.039957886,-6.953939209,-14.42625046
-4.550686798,-9.793085175,-9.67782486
-3.206931152,-10.56787399,1.599274292
-2.035766602,-7.845185852,1.637893982
-0.7225474548,-10.84869003,2.351460114
0.2543211365,-11.03505249,0.4272116089
0.7439529419,-6.501280518,-1.883982239
-0.1805245972,-7.121440887,-0.7003935242
-0.7194039917,-9.912536774,1.291065216
0.773890686,-12.95855255,-8.893905029
1.860780487,-15.56313629,0.01856140137
-3.553460541,-10.81276474,-7.893684998
1.207389221,-17.19219864,1.925296326
-0.03053649902,-12.22013809,3.453019409
-2.871478729,-6.561605072,0.3903881836
-1.677112427,-4.498595123,0.4305047607
-2.407144318,-0.9584568787,1.456620941
-1.480271759,-6.459068298,-10.400522
-5.311853943,-10.83701431,-10.17284546
-1.692530365,-5.429060211,-1.292262726
-2.848875732,-8.146509247,3.076552277
-1.34794693,-10.87623276,2.053280182
0.2386038208,-10.49991531,-1.573527832
0.613125,-6.095324707,-1.040935364
0.6701564026,-7.402406616,-0.3019221497
-0.1933978271,-8.906029816,1.006956024
-0.6583309937,-13.67616028,-3.201542358
0.5414241028,-15.45326477,-0.4460723877
-1.974094849,-11.72182434,-3.156785431
1.639839935,-17.45086075,1.571881256
1.033001862,-14.40125244,5.541326752
-2.257006531,-6.612050171,0.45984375
-1.971250763,-4.855303345,-0.08232879639
-2.160157928,-1.242266693,1.91661438
0.0008981323242,-1.857637024,0.4360432434
-4.250860291,-25.18617508,-8.759933624
-4.302502899,-1.838476868,-4.020788727
-2.99542099,-11.99770065,6.058800659
-1.39704483,-8.4351091,1.705553284
-0.7813751221,-13.79740814,1.662891998
0.6005511475,-6.284231873,-3.491040344
0.7417076111,-7.234455872,0.4596940613
-0.06631210327,-8.698261871,1.217568054
-1.308878174,-12.27267883,-0.1091230774
1.656305695,-14.60243408,-1.156644745
2.084116058,-15.04581207,0.7940986633
1.021625519,-13.38800949,2.54964798
0.5715115356,-17.04101303,4.887037354
-2.330503693,-8.490793304,2.807711334
-3.995491333,-4.017794952,0.6176156616
-0.747096405,-3.305725708,0.1847158813
-0.9955796814,-0.707428894,1.153351593
-5.006638641,-32.33830215,-17.60668671
-6.015540619,-4.543352051,-6.095773773
-3.676953735,-13.27095291,4.449197845
-1.365310822,-9.502988434,2.060016174
-0.05897735596,-11.34131561,1.479074249
1.102756805,-8.37553299,-4.81024704
0.8111631775,-5.600603485,-0.476459198
0.3138972473,-7.290289764,1.171014862
-0.219743042,-12.29483276,1.011596375
0.7214996338,-12.98654434,-12.32252518
1.622176666,-15.8563765,0.6170169067
-2.479593658,-10.38300842,-1.026415558
0.04370910645,-15.90532471,1.55975647
-1.516047363,-12.46188538,2.975961456
-1.594334564,-3.997736664,2.009720764
-0.6979985046,-3.869603119,0.2519261169
-1.350940704,-0.4067042542,1.242117004
-3.597319336,-30.30627777,-20.08074188
-5.039420471,-6.344855804,-5.822591858
-2.428250427,-15.16795807,-2.642155609
-1.441801758,-4.509821777,2.474803619
-2.29098587,-16.8330954,3.624263306
1.178199921,-10.24170227,-4.98927475
0.2589614868,-5.065466309,0.9054670715
0.6755451965,-6.964716797,0.4547543335
0.06271957397,-9.244476013,0.9740245056
-0.6691085815,-14.75870911,-2.405048676
1.574575653,-15.95786545,-0.4457730103
0.3787124634,-11.39295822,0.6188131714
0.5417234802,-13.01902679,1.79611496
-0.120050354,-16.69328613,3.862867126
-2.495909729,-5.706583099,0.6375242615
-1.086141357,-4.774770813,0.6370751953
-1.756746826,-2.718347168,2.124082947
-0.8705895996,-1.463806,-0.05224136353
-6.410718842,-25.33915695,-10.92832443
-4.136498108,-4.361480255,-2.405048676
-3.99354538,-11.80535065,5.732928314
-1.639091492,-9.742789764,2.019151154
-0.1660047913,-12.69016068,1.037342834
0.7632627869,-7.034022675,-0.7201524353
1.197809143,-7.045249329,-1.027463379
0.3320095825,-8.352780304,1.429527283
-0.6680607605,-12.92427383,0.6836283875
1.562750244,-13.00360886,-1.678309937
1.059796143,-13.5192865,0.2951861572
1.169368286,-13.67301682,2.646197205
1.5819104,-15.8217984,4.989574127
-1.553170166,-9.597891083,3.347339172
-4.130809937,-3.982318726,-0.702638855
-1.394200745,-3.479364624,0.5438191223
-0.8030799866,-0.4656816101,1.749561768
-4.192481689,-27.23421616,-13.88452698
-3.851191406,-2.718646545,-2.03247345
-4.668791199,-14.62024704,4.633015594
-1.778451691,-9.902058563,1.876048737
0.2032772827,-10.33585648,2.034868469
0.9698332214,-8.513096924,-0.4379891968
0.7147636414,-7.236850891,-0.09280700684
-0.1649569702,-9.862091675,0.4351451111
-1.135688324,-12.1643042,-0.5962101746
1.794169006,-13.72450974,-0.3954776001
1.721569977,-14.28554306,0.3547622681
0.8759783936,-13.14117279,3.027753754
0.8113128662,-16.54314835,4.627926178
-1.346000977,-7.473059692,3.343147888
-2.996768188,-4.059258728,-0.8211923218
-1.914069672,-4.425547028,1.451830902
-1.901046753,-0.4538562012,0.9987231445
-4.19352951,-28.42783401,-27.84344925
-3.869154053,-4.018842773,-4.911436615
-5.660628662,-13.85533768,6.109844513
-1.021924896,-8.768316193,2.973716125
-0.3701802063,-13.59907059,1.750310211
0.7722441101,-6.106251984,-4.827610931
0.6188131714,-6.890471191,0.430355072
-0.3969744873,-8.592132568,0.2136058044
-1.274300079,-11.88124283,-0.1456471252
1.457519073,-13.82809433,-0.08981323242
1.616787872,-13.07755508,0.36389328
0.982407074,-13.70205643,3.007994843
0.5063969421,-16.14617386,5.600154419
-2.00313446,-8.547974396,3.046764221
-2.991229706,-3.715723114,-0.4992118835
-1.68369873,-3.888613586,1.126407623
-1.19346817,-1.209933929,1.542392578
-4.618495789,-24.12937271,-12.78760803
-4.485721893,-4.278552704,-4.79737381
-6.200855255,-15.08607834,4.563110962
-1.018781433,-9.143286438,2.270478516
0.02769241333,-11.54788605,1.237027588
0.7849676514,-7.763904877,-2.326611786
0.853225708,-6.132746887,-0.7923023987
-0.1745370483,-8.39888443,0.9357041931
-1.223705292,-11.8272052,0.470022583
0.5861810303,-13.36375992,-1.209035797
1.005459137,-14.89732086,0.3778143311
1.335971832,-13.71103775,2.451452179
1.081051941,-16.30214951,2.545905762
-0.7948471069,-9.332193604,4.039200439
-2.86668869,-4.57972641,-1.120869141
-1.555565186,-3.37682785,1.300196228
-1.116677856,0.1791773987,1.870510254
-3.549119568,-32.26166153,-18.93113251
-3.408112793,-2.189047852,-3.846401367
-3.175197144,-16.95703766,2.963237915
-2.081421661,-6.616690521,1.001866608
-1.22385498,-12.12658264,2.168690186
0.1595681763,-9.728719025,0.3932322693
1.14781311,-8.132288818,-1.358724518
0.1285826111,-6.237528992,-1.501976624
-0.9707313538,-11.35448822,1.162033539
-0.5366340637,-11.10076584,-5.833968201
1.433419189,-15.73961929,-0.3341052246
-0.7713459778,-13.87240219,-4.721781006
1.288071442,-16.49779266,2.566562805
-0.407303009,-11.28757736,4.307592316
-3.116070099,-5.454806671,-0.1670526123
-1.713786163,-3.543730774,0.7747888184
-1.906136169,-0.2739303589,1.718276825
-4.460873566,-27.23436584,-22.70074356
-4.478536835,-5.503006439,-6.888824615
-3.831133118,-12.25741058,2.658920746
-1.688937836,-8.066425781,1.966610413
-0.3879931641,-11.3242511,2.03831131
0.6716532898,-11.31766479,-0.4938230896
0.6283932495,-6.159391479,-1.165027313
0.01496887207,-8.219707031,-0.04655319214
-0.6102809143,-9.797426147,1.265767822
1.044827271,-13.63170273,-4.374353485
1.764081573,-15.3520752,0.146844635
-0.9699829102,-11.96267349,-1.14077774
0.7220983887,-16.39226212,2.629881134
-1.205892334,-10.12793884,3.670217743
-3.543880463,-5.481451263,2.028431854
-1.834285583,-3.680546265,-0.1856140137
-1.839375,-0.6526428223,1.153501282
-5.561834106,-24.24283676,-24.86539215
-5.741460571,-6.235583038,-6.637646942
-3.47053299,-13.32244583,3.615880737
-1.155147858,-8.060887299,2.416874084
-0.1059796143,-11.3493988,1.891766052
0.970581665,-9.610015869,-3.462749176
0.5935157776,-4.987478485,-0.03921844482
-0.1779798889,-9.587562561,0.1251397705
-1.792372742,-10.46593597,-0.1158590698
1.248403931,-12.4801474,-4.151616669
2.316432953,-14.6459935,0.5911207581
0.9523196411,-12.19424194,2.449057159
1.00276474,-17.62884064,1.973346405
-1.783690796,-9.805509338,3.104993134
-4.69678299,-3.203638,1.514400787
-2.994522858,-3.448828125,-0.5405259705
-0.8180488586,-0.6433621216,2.271825714
-3.508553925,-31.58955917,-25.12001266
-4.730912018,-3.503015442,-3.651656342
-7.949967957,-15.66627182,6.081104279
-0.8909472656,-9.947414246,2.524799652
0.6861730957,-9.979297943,1.480421448
1.327888641,-9.105714569,-1.929038544
1.056802368,-4.764442291,-1.376088409
0.0983454895,-8.41879303,0.689765625
-0.4218228149,-10.85407883,0.7845185852
1.228345642,-13.57886261,-7.179071045
0.9680369568,-14.88983643,0.08262817383
-1.382075958,-11.50851791,-1.720671844
1.111438751,-16.20066055,2.320474548
-0.1974394226,-11.38906631,3.865860901
-2.466870117,-5.263953552,-0.3604504395
-2.02304306,-5.036726074,0.1245410156
-3.052452393,-1.156794434,0.6891668701
-4.555027771,-22.8130101,-24.52589813
-4.332290955,-8.443192291,-7.288792877
-3.984264679,-12.41712845,-0.1375639343
-1.315614166,-8.43286377,3.175346832
-0.2782713318,-11.60416901,2.180066528
0.8952882385,-9.881850586,-3.601061554
0.4568499756,-5.867648163,-0.58737854
-0.1748364258,-8.008196869,0.7018904114
-0.9768685913,-11.46795227,0.8692424011
0.3044668579,-12.06625809,-8.822054443
1.855990448,-15.68618042,0.7346722412
-1.024469604,-10.4271666,-3.497926025
0.9873468018,-16.5783252,1.416504364
-0.4897814941,-11.0057135,2.943479004
-2.207010498,-5.230872345,2.04295166
-2.792892151,-4.418661346,0.4481680298
-1.692380676,-0.5116360474,1.109043732
-3.87065094,-25.88342514,-22.95476532
-4.474195862,-8.543034668,-8.868757324
-3.713777161,-12.26160187,-1.225950623
-1.984872437,-6.74317749,2.932402039
-0.7673043823,-11.95713501,3.103945313
0.3077600098,-11.26332779,-0.04550537109
0.56866745,-7.133415985,-1.941911774
-0.01901046753,-6.815028076,-0.5535488892
-0.645308075,-9.860145721,1.48955246
1.528621216,-13.07156754,-11.70670578
1.091230774,-15.4608989,-0.3739224243
-2.544708252,-11.40747803,-2.636916504
0.4501139832,-15.40476563,1.162931671
-0.8116122437,-13.08713516,2.730621643
-2.825524292,-5.296585693,-0.1999841309
-0.9313632202,-4.306245117,1.30468689
-1.326691132,-1.515897675,1.864073639
-3.523672485,-16.39001678,-27.10578323
-5.299729156,-7.383545837,-9.377249908
-4.143832855,-6.50337616,-0.6108796692
-1.75165741,-6.605763245,2.782264252
-0.7373666382,-12.28136078,3.128344574
1.041683807,-12.01341797,-2.883753204
0.1755848694,-4.773273926,-0.177381134
0.1013392639,-7.527696075,0.006735992432
-0.58737854,-10.19739441,1.317111053
-0.6798861694,-12.84493881,-9.46481781
1.878443756,-15.20418274,-0.5818400574
-1.835183716,-11.94815369,-8.017627258
1.034199371,-16.32175873,1.506167908
-0.4993615723,-13.22110657,4.415368195
-2.15177536,-5.488486633,2.862347717
-3.162922668,-3.693120117,-0.9376501465
-2.116748199,-2.997217255,1.014290771
0.2125579834,-5.718558197,-8.983418884
-3.30198349,-13.04866516,-8.993148651
-4.414919128,-6.732848969,-0.9999206543
-3.749702454,-9.65791626,2.213147736
